upper,lower,BlockSelect,feed_2,moveon,feed_1,judgment,correct,third,second,first,item_number,sixth,fourth,fifth,practice1.thisRepN,practice1.thisTrialN,practice1.thisN,practice1.thisIndex,trials.thisRepN,trials.thisTrialN,trials.thisN,trials.thisIndex,trials_2.thisRepN,trials_2.thisTrialN,trials_2.thisN,trials_2.thisIndex,practice2.thisRepN,practice2.thisTrialN,practice2.thisN,practice2.thisIndex,block1.thisRepN,block1.thisTrialN,block1.thisN,block1.thisIndex,blcok2.thisRepN,blcok2.thisTrialN,blcok2.thisN,blcok2.thisIndex,response,RT,date,frameRate,expName,session,participant,
DLF,ZLF,1,De två bokstavssträngar är lika.,Tryck på någon av knapparna för att fortsätta.,Den första bokstaven i strängen är olika.,     LIKA                 OLIKA,8,,,,,,,,0,0,0,0,0,0,0,0,,,,,,,,,,,,,,,,,8,2.64098040863,2021_mar_05_1321,99.9869155692,Control Task #6k,001,NENA_035,
DLF,ZLF,1,De två bokstavssträngar är lika.,Tryck på någon av knapparna för att fortsätta.,Den första bokstaven i strängen är olika.,     LIKA                 OLIKA,8,,,,,,,,0,0,0,0,,,,,,,,,,,,,,,,,,,,,,,2021_mar_05_1321,99.9869155692,Control Task #6k,001,NENA_035,
FLD,FLD,2,De två bokstavssträngar är lika.,Tryck på någon av knapparna för att fortsätta.,Den första bokstaven i strängen är olika.,     LIKA                 OLIKA,4,,,,,,,,0,1,1,1,,,,,0,0,0,0,,,,,,,,,,,,,1,1.47064951527,2021_mar_05_1321,99.9869155692,Control Task #6k,001,NENA_035,
FLD,FLD,2,De två bokstavssträngar är lika.,Tryck på någon av knapparna för att fortsätta.,Den första bokstaven i strängen är olika.,     LIKA                 OLIKA,4,,,,,,,,0,1,1,1,,,,,,,,,,,,,,,,,,,,,,,2021_mar_05_1321,99.9869155692,Control Task #6k,001,NENA_035,
JKY,JKY,1,,Tryck på någon av knapparna för att fortsätta.,,     LIKA                 OLIKA,4,None,None,None,,,,,,,,,,,,,,,,,0,0,0,0,,,,,,,,,1,1.39089076214,2021_mar_05_1321,99.9869155692,Control Task #6k,001,NENA_035,
RNL,RPL,1,,Tryck på någon av knapparna för att fortsätta.,,     LIKA                 OLIKA,8,None,P,None,,,,,,,,,,,,,,,,,0,1,1,4,,,,,,,,,1,1.16075652014,2021_mar_05_1321,99.9869155692,Control Task #6k,001,NENA_035,
GWG,GWX,1,,Tryck på någon av knapparna för att fortsätta.,,     LIKA                 OLIKA,8,X,None,None,,,,,,,,,,,,,,,,,0,2,2,5,,,,,,,,,1,1.77055470488,2021_mar_05_1321,99.9869155692,Control Task #6k,001,NENA_035,
WWT,WWT,1,,Tryck på någon av knapparna för att fortsätta.,,     LIKA                 OLIKA,4,None,None,None,,,,,,,,,,,,,,,,,0,3,3,1,,,,,,,,,1,1.96057126142,2021_mar_05_1321,99.9869155692,Control Task #6k,001,NENA_035,
JPB,SPB,1,,Tryck på någon av knapparna för att fortsätta.,,     LIKA                 OLIKA,8,None,None,S,,,,,,,,,,,,,,,,,0,4,4,3,,,,,,,,,1,0.800742317826,2021_mar_05_1321,99.9869155692,Control Task #6k,001,NENA_035,
FDW,FDW,1,,Tryck på någon av knapparna för att fortsätta.,,     LIKA                 OLIKA,4,None,None,None,,,,,,,,,,,,,,,,,0,5,5,2,,,,,,,,,1,0.710249079319,2021_mar_05_1321,99.9869155692,Control Task #6k,001,NENA_035,
FHP,FHP,,,Pulse el botón para continuar.,,     LIKA                 OLIKA,4,None,None,None,12,None,None,None,,,,,,,,,,,,,,,,,0,0,0,11,,,,,1,0.920727486866,2021_mar_05_1321,99.9869155692,Control Task #6k,001,NENA_035,
RBN,RBW,,,Pulse el botón para continuar.,,     LIKA                 OLIKA,8,W,None,None,21,None,None,None,,,,,,,,,,,,,,,,,0,1,1,20,,,,,1,1.00070338014,2021_mar_05_1321,99.9869155692,Control Task #6k,001,NENA_035,
GZK,GZK,,,Pulse el botón para continuar.,,     LIKA                 OLIKA,4,None,None,None,3,None,None,None,,,,,,,,,,,,,,,,,0,2,2,2,,,,,1,0.710803315926,2021_mar_05_1321,99.9869155692,Control Task #6k,001,NENA_035,
RBT,RBT,,,Pulse el botón para continuar.,,     LIKA                 OLIKA,4,None,None,None,2,None,None,None,,,,,,,,,,,,,,,,,0,3,3,1,,,,,1,0.920636397052,2021_mar_05_1321,99.9869155692,Control Task #6k,001,NENA_035,
CBN,CMN,,,Pulse el botón para continuar.,,     LIKA                 OLIKA,8,None,M,None,20,None,None,None,,,,,,,,,,,,,,,,,0,4,4,19,,,,,1,0.830456520331,2021_mar_05_1321,99.9869155692,Control Task #6k,001,NENA_035,
HVD,HVD,,,Pulse el botón para continuar.,,     LIKA                 OLIKA,4,None,None,None,8,None,None,None,,,,,,,,,,,,,,,,,0,5,5,7,,,,,1,0.950773012526,2021_mar_05_1321,99.9869155692,Control Task #6k,001,NENA_035,
VXL,VXD,,,Pulse el botón para continuar.,,     LIKA                 OLIKA,8,D,None,None,24,None,None,None,,,,,,,,,,,,,,,,,0,6,6,23,,,,,1,0.870840739726,2021_mar_05_1321,99.9869155692,Control Task #6k,001,NENA_035,
NLX,NLX,,,Pulse el botón para continuar.,,     LIKA                 OLIKA,4,None,None,None,9,None,None,None,,,,,,,,,,,,,,,,,0,7,7,8,,,,,1,0.810327596171,2021_mar_05_1321,99.9869155692,Control Task #6k,001,NENA_035,
BGQ,BWQ,,,Pulse el botón para continuar.,,     LIKA                 OLIKA,8,None,W,None,18,None,None,None,,,,,,,,,,,,,,,,,0,8,8,17,,,,,1,0.670630142646,2021_mar_05_1321,99.9869155692,Control Task #6k,001,NENA_035,
ZKJ,ZKV,,,Pulse el botón para continuar.,,     LIKA                 OLIKA,8,V,None,None,22,None,None,None,,,,,,,,,,,,,,,,,0,9,9,21,,,,,0,1.10059426481,2021_mar_05_1321,99.9869155692,Control Task #6k,001,NENA_035,
SVB,PVB,,,Pulse el botón para continuar.,,     LIKA                 OLIKA,8,None,None,P,13,None,None,None,,,,,,,,,,,,,,,,,0,10,10,12,,,,,1,1.50086471174,2021_mar_05_1321,99.9869155692,Control Task #6k,001,NENA_035,
QNB,QNB,,,Pulse el botón para continuar.,,     LIKA                 OLIKA,4,None,None,None,1,None,None,None,,,,,,,,,,,,,,,,,0,11,11,0,,,,,1,1.43082177765,2021_mar_05_1321,99.9869155692,Control Task #6k,001,NENA_035,
KTM,XTM,,,Pulse el botón para continuar.,,     LIKA                 OLIKA,8,None,None,X,16,None,None,None,,,,,,,,,,,,,,,,,0,12,12,15,,,,,1,1.33079105088,2021_mar_05_1321,99.9869155692,Control Task #6k,001,NENA_035,
KTS,KTS,,,Pulse el botón para continuar.,,     LIKA                 OLIKA,4,None,None,None,11,None,None,None,,,,,,,,,,,,,,,,,0,13,13,10,,,,,1,1.25076544309,2021_mar_05_1321,99.9869155692,Control Task #6k,001,NENA_035,
VSG,VSG,,,Pulse el botón para continuar.,,     LIKA                 OLIKA,4,None,None,None,5,None,None,None,,,,,,,,,,,,,,,,,0,14,14,4,,,,,1,1.05050673519,2021_mar_05_1321,99.9869155692,Control Task #6k,001,NENA_035,
WJP,WJZ,,,Pulse el botón para continuar.,,     LIKA                 OLIKA,8,Z,None,None,23,None,None,None,,,,,,,,,,,,,,,,,0,15,15,22,,,,,1,0.990870812195,2021_mar_05_1321,99.9869155692,Control Task #6k,001,NENA_035,
ZLW,ZLW,,,Pulse el botón para continuar.,,     LIKA                 OLIKA,4,None,None,None,4,None,None,None,,,,,,,,,,,,,,,,,0,16,16,3,,,,,1,1.0005600099,2021_mar_05_1321,99.9869155692,Control Task #6k,001,NENA_035,
NRK,NRK,,,Pulse el botón para continuar.,,     LIKA                 OLIKA,4,None,None,None,10,None,None,None,,,,,,,,,,,,,,,,,0,17,17,9,,,,,1,0.950657867304,2021_mar_05_1321,99.9869155692,Control Task #6k,001,NENA_035,
WSV,WSV,,,Pulse el botón para continuar.,,     LIKA                 OLIKA,4,None,None,None,7,None,None,None,,,,,,,,,,,,,,,,,0,18,18,6,,,,,1,1.30064417176,2021_mar_05_1321,99.9869155692,Control Task #6k,001,NENA_035,
BLG,BSG,,,Pulse el botón para continuar.,,     LIKA                 OLIKA,8,None,S,None,19,None,None,None,,,,,,,,,,,,,,,,,0,19,19,18,,,,,1,0.780289126762,2021_mar_05_1321,99.9869155692,Control Task #6k,001,NENA_035,
TLJ,TXJ,,,Pulse el botón para continuar.,,     LIKA                 OLIKA,8,None,X,None,17,None,None,None,,,,,,,,,,,,,,,,,0,20,20,16,,,,,1,1.49057605326,2021_mar_05_1321,99.9869155692,Control Task #6k,001,NENA_035,
GVN,RVN,,,Pulse el botón para continuar.,,     LIKA                 OLIKA,8,None,None,R,14,None,None,None,,,,,,,,,,,,,,,,,0,21,21,13,,,,,1,1.39087408373,2021_mar_05_1321,99.9869155692,Control Task #6k,001,NENA_035,
FRQ,MRQ,,,Pulse el botón para continuar.,,     LIKA                 OLIKA,8,None,None,M,15,None,None,None,,,,,,,,,,,,,,,,,0,22,22,14,,,,,1,0.930769176492,2021_mar_05_1321,99.9869155692,Control Task #6k,001,NENA_035,
XTK,XTK,,,Pulse el botón para continuar.,,     LIKA                 OLIKA,4,None,None,None,6,None,None,None,,,,,,,,,,,,,,,,,0,23,23,5,,,,,1,1.23040045519,2021_mar_05_1321,99.9869155692,Control Task #6k,001,NENA_035,
CJDHXN,CJDBXN,,,Pulse el botón para continuar.,,     LIKA                 OLIKA,8,None,None,None,43,None,B,None,,,,,,,,,,,,,,,,,,,,,0,0,0,18,1,1.43079066599,2021_mar_05_1321,99.9869155692,Control Task #6k,001,NENA_035,
PBRJNQ,PBRJNQ,,,Pulse el botón para continuar.,,     LIKA                 OLIKA,4,None,None,None,25,None,None,None,,,,,,,,,,,,,,,,,,,,,0,1,1,0,1,2.11070940361,2021_mar_05_1321,99.9869155692,Control Task #6k,001,NENA_035,
RDNCQM,RDNCQB,,,Pulse el botón para continuar.,,     LIKA                 OLIKA,8,None,None,None,48,B,None,None,,,,,,,,,,,,,,,,,,,,,0,2,2,23,1,1.05056190226,2021_mar_05_1321,99.9869155692,Control Task #6k,001,NENA_035,
KWDCXG,KWDCXG,,,Pulse el botón para continuar.,,     LIKA                 OLIKA,4,None,None,None,34,None,None,None,,,,,,,,,,,,,,,,,,,,,0,3,3,9,1,1.26077698327,2021_mar_05_1321,99.9869155692,Control Task #6k,001,NENA_035,
PZBQJM,PZBQJH,,,Pulse el botón para continuar.,,     LIKA                 OLIKA,8,None,None,None,47,H,None,None,,,,,,,,,,,,,,,,,,,,,0,4,4,22,1,1.22080779985,2021_mar_05_1321,99.9869155692,Control Task #6k,001,NENA_035,
NKZRGP,NKZRGP,,,Pulse el botón para continuar.,,     LIKA                 OLIKA,4,None,None,None,36,None,None,None,,,,,,,,,,,,,,,,,,,,,0,5,5,11,1,1.18088127469,2021_mar_05_1321,99.9869155692,Control Task #6k,001,NENA_035,
QVPSKN,RVPSKN,,,Pulse el botón para continuar.,,     LIKA                 OLIKA,8,None,None,R,37,None,None,None,,,,,,,,,,,,,,,,,,,,,0,6,6,12,1,1.03052021905,2021_mar_05_1321,99.9869155692,Control Task #6k,001,NENA_035,
XDPVFN,XDPVFN,,,Pulse el botón para continuar.,,     LIKA                 OLIKA,4,None,None,None,32,None,None,None,,,,,,,,,,,,,,,,,,,,,0,7,7,7,1,1.78075932981,2021_mar_05_1321,99.9869155692,Control Task #6k,001,NENA_035,
ZKSWVJ,ZKSWVJ,,,Pulse el botón para continuar.,,     LIKA                 OLIKA,4,None,None,None,27,None,None,None,,,,,,,,,,,,,,,,,,,,,0,8,8,2,1,1.90078779858,2021_mar_05_1321,99.9869155692,Control Task #6k,001,NENA_035,
QJZTBL,QJZCBL,,,Pulse el botón para continuar.,,     LIKA                 OLIKA,8,None,None,None,44,None,C,None,,,,,,,,,,,,,,,,,,,,,0,9,9,19,1,1.13076584081,2021_mar_05_1321,99.9869155692,Control Task #6k,001,NENA_035,
MLVDZG,MLVDZG,,,Pulse el botón para continuar.,,     LIKA                 OLIKA,4,None,None,None,26,None,None,None,,,,,,,,,,,,,,,,,,,,,0,10,10,1,1,2.30098126821,2021_mar_05_1321,99.9869155692,Control Task #6k,001,NENA_035,
MNTWLX,MNTWLX,,,Pulse el botón para continuar.,,     LIKA                 OLIKA,4,None,None,None,33,None,None,None,,,,,,,,,,,,,,,,,,,,,0,11,11,8,1,1.48044616047,2021_mar_05_1321,99.9869155692,Control Task #6k,001,NENA_035,
DRLGHS,DRFGHS,,,Pulse el botón para continuar.,,     LIKA                 OLIKA,8,F,None,None,42,None,None,None,,,,,,,,,,,,,,,,,,,,,0,12,12,17,1,1.51084578174,2021_mar_05_1321,99.9869155692,Control Task #6k,001,NENA_035,
QGNXBF,QGNXBF,,,Pulse el botón para continuar.,,     LIKA                 OLIKA,4,None,None,None,29,None,None,None,,,,,,,,,,,,,,,,,,,,,0,13,13,4,1,2.0009230862,2021_mar_05_1321,99.9869155692,Control Task #6k,001,NENA_035,
BKDXWF,BKDXWF,,,Pulse el botón para continuar.,,     LIKA                 OLIKA,4,None,None,None,35,None,None,None,,,,,,,,,,,,,,,,,,,,,0,14,14,10,1,1.76071219404,2021_mar_05_1321,99.9869155692,Control Task #6k,001,NENA_035,
PXVFWM,PXVFZM,,,Pulse el botón para continuar.,,     LIKA                 OLIKA,8,None,None,None,45,None,None,Z,,,,,,,,,,,,,,,,,,,,,0,15,15,20,1,1.22086553283,2021_mar_05_1321,99.9869155692,Control Task #6k,001,NENA_035,
GJHSCJ,GJVSCJ,,,Pulse el botón para continuar.,,     LIKA                 OLIKA,8,V,None,None,41,None,None,None,,,,,,,,,,,,,,,,,,,,,0,16,16,16,1,1.39085451866,2021_mar_05_1321,99.9869155692,Control Task #6k,001,NENA_035,
DWQRVK,DPQRVK,,,Pulse el botón para continuar.,,     LIKA                 OLIKA,8,None,P,None,39,None,None,None,,,,,,,,,,,,,,,,,,,,,0,17,17,14,1,2.00101642118,2021_mar_05_1321,99.9869155692,Control Task #6k,001,NENA_035,
JRTLNM,JRTLNM,,,Pulse el botón para continuar.,,     LIKA                 OLIKA,4,None,None,None,30,None,None,None,,,,,,,,,,,,,,,,,,,,,0,18,18,5,1,2.03075050949,2021_mar_05_1321,99.9869155692,Control Task #6k,001,NENA_035,
NMHJKR,WMHJKR,,,Pulse el botón para continuar.,,     LIKA                 OLIKA,8,None,None,W,38,None,None,None,,,,,,,,,,,,,,,,,,,,,0,19,19,13,1,1.56095159346,2021_mar_05_1321,99.9869155692,Control Task #6k,001,NENA_035,
HNDKLM,HNDKLM,,,Pulse el botón para continuar.,,     LIKA                 OLIKA,4,None,None,None,28,None,None,None,,,,,,,,,,,,,,,,,,,,,0,20,20,3,1,1.43095424277,2021_mar_05_1321,99.9869155692,Control Task #6k,001,NENA_035,
JZVSPX,JZVSPX,,,Pulse el botón para continuar.,,     LIKA                 OLIKA,4,None,None,None,31,None,None,None,,,,,,,,,,,,,,,,,,,,,0,21,21,6,1,2.78116602658,2021_mar_05_1321,99.9869155692,Control Task #6k,001,NENA_035,
DVBWHP,DCBWHP,,,Pulse el botón para continuar.,,     LIKA                 OLIKA,8,None,C,None,40,None,None,None,,,,,,,,,,,,,,,,,,,,,0,22,22,15,1,0.950542401346,2021_mar_05_1321,99.9869155692,Control Task #6k,001,NENA_035,
HVNPDS,HVNPMS,,,Pulse el botón para continuar.,,     LIKA                 OLIKA,8,None,None,None,46,None,None,M,,,,,,,,,,,,,,,,,,,,,0,23,23,21,1,1.53084288226,2021_mar_05_1321,99.9869155692,Control Task #6k,001,NENA_035,
