upper,lower,BlockSelect,feed_2,moveon,feed_1,judgment,correct,third,second,first,item_number,sixth,fourth,fifth,practice1.thisRepN,practice1.thisTrialN,practice1.thisN,practice1.thisIndex,trials.thisRepN,trials.thisTrialN,trials.thisN,trials.thisIndex,trials_2.thisRepN,trials_2.thisTrialN,trials_2.thisN,trials_2.thisIndex,practice2.thisRepN,practice2.thisTrialN,practice2.thisN,practice2.thisIndex,block1.thisRepN,block1.thisTrialN,block1.thisN,block1.thisIndex,blcok2.thisRepN,blcok2.thisTrialN,blcok2.thisN,blcok2.thisIndex,response,RT,date,frameRate,expName,session,participant,
DLF,ZLF,1,De två bokstavssträngar är lika.,Tryck på någon av knapparna för att fortsätta.,Den första bokstaven i strängen är olika.,     LIKA                 OLIKA,8,,,,,,,,0,0,0,0,0,0,0,0,,,,,,,,,,,,,,,,,8,5.75159172135,2020_okt_28_1112,100.05651313,Control Task #6k,001,NENA_018,
DLF,ZLF,1,De två bokstavssträngar är lika.,Tryck på någon av knapparna för att fortsätta.,Den första bokstaven i strängen är olika.,     LIKA                 OLIKA,8,,,,,,,,0,0,0,0,,,,,,,,,,,,,,,,,,,,,,,2020_okt_28_1112,100.05651313,Control Task #6k,001,NENA_018,
FLD,FLD,2,De två bokstavssträngar är lika.,Tryck på någon av knapparna för att fortsätta.,Den första bokstaven i strängen är olika.,     LIKA                 OLIKA,4,,,,,,,,0,1,1,1,,,,,0,0,0,0,,,,,,,,,,,,,1,1.48077473875,2020_okt_28_1112,100.05651313,Control Task #6k,001,NENA_018,
FLD,FLD,2,De två bokstavssträngar är lika.,Tryck på någon av knapparna för att fortsätta.,Den första bokstaven i strängen är olika.,     LIKA                 OLIKA,4,,,,,,,,0,1,1,1,,,,,,,,,,,,,,,,,,,,,,,2020_okt_28_1112,100.05651313,Control Task #6k,001,NENA_018,
JPB,SPB,1,,Tryck på någon av knapparna för att fortsätta.,,     LIKA                 OLIKA,8,None,None,S,,,,,,,,,,,,,,,,,0,0,0,3,,,,,,,,,1,1.4008401941,2020_okt_28_1112,100.05651313,Control Task #6k,001,NENA_018,
FDW,FDW,1,,Tryck på någon av knapparna för att fortsätta.,,     LIKA                 OLIKA,4,None,None,None,,,,,,,,,,,,,,,,,0,1,1,2,,,,,,,,,1,2.59061642138,2020_okt_28_1112,100.05651313,Control Task #6k,001,NENA_018,
RNL,RPL,1,,Tryck på någon av knapparna för att fortsätta.,,     LIKA                 OLIKA,8,None,P,None,,,,,,,,,,,,,,,,,0,2,2,4,,,,,,,,,1,0.970731442907,2020_okt_28_1112,100.05651313,Control Task #6k,001,NENA_018,
GWG,GWX,1,,Tryck på någon av knapparna för att fortsätta.,,     LIKA                 OLIKA,8,X,None,None,,,,,,,,,,,,,,,,,0,3,3,5,,,,,,,,,0,1.1106249144,2020_okt_28_1112,100.05651313,Control Task #6k,001,NENA_018,
JKY,JKY,1,,Tryck på någon av knapparna för att fortsätta.,,     LIKA                 OLIKA,4,None,None,None,,,,,,,,,,,,,,,,,0,4,4,0,,,,,,,,,1,1.55094550702,2020_okt_28_1112,100.05651313,Control Task #6k,001,NENA_018,
WWT,WWT,1,,Tryck på någon av knapparna för att fortsätta.,,     LIKA                 OLIKA,4,None,None,None,,,,,,,,,,,,,,,,,0,5,5,1,,,,,,,,,1,0.890339852675,2020_okt_28_1112,100.05651313,Control Task #6k,001,NENA_018,
WJP,WJZ,,,Pulse el botón para continuar.,,     LIKA                 OLIKA,8,Z,None,None,23,None,None,None,,,,,,,,,,,,,,,,,0,0,0,22,,,,,1,1.4308047434,2020_okt_28_1112,100.05651313,Control Task #6k,001,NENA_018,
WSV,WSV,,,Pulse el botón para continuar.,,     LIKA                 OLIKA,4,None,None,None,7,None,None,None,,,,,,,,,,,,,,,,,0,1,1,6,,,,,1,1.08083580646,2020_okt_28_1112,100.05651313,Control Task #6k,001,NENA_018,
NLX,NLX,,,Pulse el botón para continuar.,,     LIKA                 OLIKA,4,None,None,None,9,None,None,None,,,,,,,,,,,,,,,,,0,2,2,8,,,,,1,0.760587981915,2020_okt_28_1112,100.05651313,Control Task #6k,001,NENA_018,
HVD,HVD,,,Pulse el botón para continuar.,,     LIKA                 OLIKA,4,None,None,None,8,None,None,None,,,,,,,,,,,,,,,,,0,3,3,7,,,,,1,0.780244148933,2020_okt_28_1112,100.05651313,Control Task #6k,001,NENA_018,
XTK,XTK,,,Pulse el botón para continuar.,,     LIKA                 OLIKA,4,None,None,None,6,None,None,None,,,,,,,,,,,,,,,,,0,4,4,5,,,,,1,0.780484378503,2020_okt_28_1112,100.05651313,Control Task #6k,001,NENA_018,
CBN,CMN,,,Pulse el botón para continuar.,,     LIKA                 OLIKA,8,None,M,None,20,None,None,None,,,,,,,,,,,,,,,,,0,5,5,19,,,,,1,1.31084904314,2020_okt_28_1112,100.05651313,Control Task #6k,001,NENA_018,
ZLW,ZLW,,,Pulse el botón para continuar.,,     LIKA                 OLIKA,4,None,None,None,4,None,None,None,,,,,,,,,,,,,,,,,0,6,6,3,,,,,1,0.860584421771,2020_okt_28_1112,100.05651313,Control Task #6k,001,NENA_018,
KTM,XTM,,,Pulse el botón para continuar.,,     LIKA                 OLIKA,8,None,None,X,16,None,None,None,,,,,,,,,,,,,,,,,0,7,7,15,,,,,1,1.25056296789,2020_okt_28_1112,100.05651313,Control Task #6k,001,NENA_018,
BLG,BSG,,,Pulse el botón para continuar.,,     LIKA                 OLIKA,8,None,S,None,19,None,None,None,,,,,,,,,,,,,,,,,0,8,8,18,,,,,1,0.800782975195,2020_okt_28_1112,100.05651313,Control Task #6k,001,NENA_018,
RBT,RBT,,,Pulse el botón para continuar.,,     LIKA                 OLIKA,4,None,None,None,2,None,None,None,,,,,,,,,,,,,,,,,0,9,9,1,,,,,1,0.770716111834,2020_okt_28_1112,100.05651313,Control Task #6k,001,NENA_018,
GZK,GZK,,,Pulse el botón para continuar.,,     LIKA                 OLIKA,4,None,None,None,3,None,None,None,,,,,,,,,,,,,,,,,0,10,10,2,,,,,1,0.750659669111,2020_okt_28_1112,100.05651313,Control Task #6k,001,NENA_018,
SVB,PVB,,,Pulse el botón para continuar.,,     LIKA                 OLIKA,8,None,None,P,13,None,None,None,,,,,,,,,,,,,,,,,0,11,11,12,,,,,1,1.32075490458,2020_okt_28_1112,100.05651313,Control Task #6k,001,NENA_018,
NRK,NRK,,,Pulse el botón para continuar.,,     LIKA                 OLIKA,4,None,None,None,10,None,None,None,,,,,,,,,,,,,,,,,0,12,12,9,,,,,1,0.650659380452,2020_okt_28_1112,100.05651313,Control Task #6k,001,NENA_018,
FHP,FHP,,,Pulse el botón para continuar.,,     LIKA                 OLIKA,4,None,None,None,12,None,None,None,,,,,,,,,,,,,,,,,0,13,13,11,,,,,1,0.620834991794,2020_okt_28_1112,100.05651313,Control Task #6k,001,NENA_018,
FRQ,MRQ,,,Pulse el botón para continuar.,,     LIKA                 OLIKA,8,None,None,M,15,None,None,None,,,,,,,,,,,,,,,,,0,14,14,14,,,,,1,0.840691553252,2020_okt_28_1112,100.05651313,Control Task #6k,001,NENA_018,
RBN,RBW,,,Pulse el botón para continuar.,,     LIKA                 OLIKA,8,W,None,None,21,None,None,None,,,,,,,,,,,,,,,,,0,15,15,20,,,,,0,1.18083737805,2020_okt_28_1112,100.05651313,Control Task #6k,001,NENA_018,
ZKJ,ZKV,,,Pulse el botón para continuar.,,     LIKA                 OLIKA,8,V,None,None,22,None,None,None,,,,,,,,,,,,,,,,,0,16,16,21,,,,,1,1.15065376761,2020_okt_28_1112,100.05651313,Control Task #6k,001,NENA_018,
GVN,RVN,,,Pulse el botón para continuar.,,     LIKA                 OLIKA,8,None,None,R,14,None,None,None,,,,,,,,,,,,,,,,,0,17,17,13,,,,,0,1.11071856865,2020_okt_28_1112,100.05651313,Control Task #6k,001,NENA_018,
BGQ,BWQ,,,Pulse el botón para continuar.,,     LIKA                 OLIKA,8,None,W,None,18,None,None,None,,,,,,,,,,,,,,,,,0,18,18,17,,,,,1,1.65042781069,2020_okt_28_1112,100.05651313,Control Task #6k,001,NENA_018,
QNB,QNB,,,Pulse el botón para continuar.,,     LIKA                 OLIKA,4,None,None,None,1,None,None,None,,,,,,,,,,,,,,,,,0,19,19,0,,,,,1,1.00060618676,2020_okt_28_1112,100.05651313,Control Task #6k,001,NENA_018,
VSG,VSG,,,Pulse el botón para continuar.,,     LIKA                 OLIKA,4,None,None,None,5,None,None,None,,,,,,,,,,,,,,,,,0,20,20,4,,,,,1,0.950741392069,2020_okt_28_1112,100.05651313,Control Task #6k,001,NENA_018,
TLJ,TXJ,,,Pulse el botón para continuar.,,     LIKA                 OLIKA,8,None,X,None,17,None,None,None,,,,,,,,,,,,,,,,,0,21,21,16,,,,,1,0.780733909351,2020_okt_28_1112,100.05651313,Control Task #6k,001,NENA_018,
KTS,KTS,,,Pulse el botón para continuar.,,     LIKA                 OLIKA,4,None,None,None,11,None,None,None,,,,,,,,,,,,,,,,,0,22,22,10,,,,,1,0.650298234264,2020_okt_28_1112,100.05651313,Control Task #6k,001,NENA_018,
VXL,VXD,,,Pulse el botón para continuar.,,     LIKA                 OLIKA,8,D,None,None,24,None,None,None,,,,,,,,,,,,,,,,,0,23,23,23,,,,,1,0.630334162857,2020_okt_28_1112,100.05651313,Control Task #6k,001,NENA_018,
DVBWHP,DCBWHP,,,Pulse el botón para continuar.,,     LIKA                 OLIKA,8,None,C,None,40,None,None,None,,,,,,,,,,,,,,,,,,,,,0,0,0,15,0,2.85118435743,2020_okt_28_1112,100.05651313,Control Task #6k,001,NENA_018,
KWDCXG,KWDCXG,,,Pulse el botón para continuar.,,     LIKA                 OLIKA,4,None,None,None,34,None,None,None,,,,,,,,,,,,,,,,,,,,,0,1,1,9,1,1.3207417545,2020_okt_28_1112,100.05651313,Control Task #6k,001,NENA_018,
NKZRGP,NKZRGP,,,Pulse el botón para continuar.,,     LIKA                 OLIKA,4,None,None,None,36,None,None,None,,,,,,,,,,,,,,,,,,,,,0,2,2,11,1,2.24097784019,2020_okt_28_1112,100.05651313,Control Task #6k,001,NENA_018,
PXVFWM,PXVFZM,,,Pulse el botón para continuar.,,     LIKA                 OLIKA,8,None,None,None,45,None,None,Z,,,,,,,,,,,,,,,,,,,,,0,3,3,20,1,1.1807437238,2020_okt_28_1112,100.05651313,Control Task #6k,001,NENA_018,
GJHSCJ,GJVSCJ,,,Pulse el botón para continuar.,,     LIKA                 OLIKA,8,V,None,None,41,None,None,None,,,,,,,,,,,,,,,,,,,,,0,4,4,16,0,1.2507541252,2020_okt_28_1112,100.05651313,Control Task #6k,001,NENA_018,
HVNPDS,HVNPMS,,,Pulse el botón para continuar.,,     LIKA                 OLIKA,8,None,None,None,46,None,None,M,,,,,,,,,,,,,,,,,,,,,0,5,5,21,1,1.78093629234,2020_okt_28_1112,100.05651313,Control Task #6k,001,NENA_018,
MLVDZG,MLVDZG,,,Pulse el botón para continuar.,,     LIKA                 OLIKA,4,None,None,None,26,None,None,None,,,,,,,,,,,,,,,,,,,,,0,6,6,1,1,1.44077411011,2020_okt_28_1112,100.05651313,Control Task #6k,001,NENA_018,
CJDHXN,CJDBXN,,,Pulse el botón para continuar.,,     LIKA                 OLIKA,8,None,None,None,43,None,B,None,,,,,,,,,,,,,,,,,,,,,0,7,7,18,1,1.80075186402,2020_okt_28_1112,100.05651313,Control Task #6k,001,NENA_018,
JRTLNM,JRTLNM,,,Pulse el botón para continuar.,,     LIKA                 OLIKA,4,None,None,None,30,None,None,None,,,,,,,,,,,,,,,,,,,,,0,8,8,5,1,1.98102058116,2020_okt_28_1112,100.05651313,Control Task #6k,001,NENA_018,
ZKSWVJ,ZKSWVJ,,,Pulse el botón para continuar.,,     LIKA                 OLIKA,4,None,None,None,27,None,None,None,,,,,,,,,,,,,,,,,,,,,0,9,9,2,1,2.1409554209,2020_okt_28_1112,100.05651313,Control Task #6k,001,NENA_018,
PBRJNQ,PBRJNQ,,,Pulse el botón para continuar.,,     LIKA                 OLIKA,4,None,None,None,25,None,None,None,,,,,,,,,,,,,,,,,,,,,0,10,10,0,1,1.72079454727,2020_okt_28_1112,100.05651313,Control Task #6k,001,NENA_018,
DWQRVK,DPQRVK,,,Pulse el botón para continuar.,,     LIKA                 OLIKA,8,None,P,None,39,None,None,None,,,,,,,,,,,,,,,,,,,,,0,11,11,14,0,1.60084077142,2020_okt_28_1112,100.05651313,Control Task #6k,001,NENA_018,
JZVSPX,JZVSPX,,,Pulse el botón para continuar.,,     LIKA                 OLIKA,4,None,None,None,31,None,None,None,,,,,,,,,,,,,,,,,,,,,0,12,12,6,0,1.88093016632,2020_okt_28_1112,100.05651313,Control Task #6k,001,NENA_018,
HNDKLM,HNDKLM,,,Pulse el botón para continuar.,,     LIKA                 OLIKA,4,None,None,None,28,None,None,None,,,,,,,,,,,,,,,,,,,,,0,13,13,3,1,1.19080161303,2020_okt_28_1112,100.05651313,Control Task #6k,001,NENA_018,
MNTWLX,MNTWLX,,,Pulse el botón para continuar.,,     LIKA                 OLIKA,4,None,None,None,33,None,None,None,,,,,,,,,,,,,,,,,,,,,0,14,14,8,1,1.60068842289,2020_okt_28_1112,100.05651313,Control Task #6k,001,NENA_018,
RDNCQM,RDNCQB,,,Pulse el botón para continuar.,,     LIKA                 OLIKA,8,None,None,None,48,B,None,None,,,,,,,,,,,,,,,,,,,,,0,15,15,23,0,2.07079138804,2020_okt_28_1112,100.05651313,Control Task #6k,001,NENA_018,
QJZTBL,QJZCBL,,,Pulse el botón para continuar.,,     LIKA                 OLIKA,8,None,None,None,44,None,C,None,,,,,,,,,,,,,,,,,,,,,0,16,16,19,1,2.68116981857,2020_okt_28_1112,100.05651313,Control Task #6k,001,NENA_018,
PZBQJM,PZBQJH,,,Pulse el botón para continuar.,,     LIKA                 OLIKA,8,None,None,None,47,H,None,None,,,,,,,,,,,,,,,,,,,,,0,17,17,22,1,1.63082648914,2020_okt_28_1112,100.05651313,Control Task #6k,001,NENA_018,
BKDXWF,BKDXWF,,,Pulse el botón para continuar.,,     LIKA                 OLIKA,4,None,None,None,35,None,None,None,,,,,,,,,,,,,,,,,,,,,0,18,18,10,1,1.72085676961,2020_okt_28_1112,100.05651313,Control Task #6k,001,NENA_018,
NMHJKR,WMHJKR,,,Pulse el botón para continuar.,,     LIKA                 OLIKA,8,None,None,W,38,None,None,None,,,,,,,,,,,,,,,,,,,,,0,19,19,13,0,1.18079087166,2020_okt_28_1112,100.05651313,Control Task #6k,001,NENA_018,
XDPVFN,XDPVFN,,,Pulse el botón para continuar.,,     LIKA                 OLIKA,4,None,None,None,32,None,None,None,,,,,,,,,,,,,,,,,,,,,0,20,20,7,1,1.7408006348,2020_okt_28_1112,100.05651313,Control Task #6k,001,NENA_018,
QVPSKN,RVPSKN,,,Pulse el botón para continuar.,,     LIKA                 OLIKA,8,None,None,R,37,None,None,None,,,,,,,,,,,,,,,,,,,,,0,21,21,12,1,1.0608342092,2020_okt_28_1112,100.05651313,Control Task #6k,001,NENA_018,
DRLGHS,DRFGHS,,,Pulse el botón para continuar.,,     LIKA                 OLIKA,8,F,None,None,42,None,None,None,,,,,,,,,,,,,,,,,,,,,0,22,22,17,1,1.32070326645,2020_okt_28_1112,100.05651313,Control Task #6k,001,NENA_018,
QGNXBF,QGNXBF,,,Pulse el botón para continuar.,,     LIKA                 OLIKA,4,None,None,None,29,None,None,None,,,,,,,,,,,,,,,,,,,,,0,23,23,4,1,1.52062013226,2020_okt_28_1112,100.05651313,Control Task #6k,001,NENA_018,
