upper,lower,BlockSelect,feed_2,moveon,feed_1,judgment,correct,third,second,first,item_number,sixth,fourth,fifth,practice1.thisRepN,practice1.thisTrialN,practice1.thisN,practice1.thisIndex,trials.thisRepN,trials.thisTrialN,trials.thisN,trials.thisIndex,trials_2.thisRepN,trials_2.thisTrialN,trials_2.thisN,trials_2.thisIndex,practice2.thisRepN,practice2.thisTrialN,practice2.thisN,practice2.thisIndex,block1.thisRepN,block1.thisTrialN,block1.thisN,block1.thisIndex,blcok2.thisRepN,blcok2.thisTrialN,blcok2.thisN,blcok2.thisIndex,response,RT,date,frameRate,expName,session,participant,
DLF,ZLF,1,De två bokstavssträngar är lika.,Tryck på någon av knapparna för att fortsätta.,Den första bokstaven i strängen är olika.,    OLIKA              LIKA  ,4,,,,,,,,0,0,0,0,0,0,0,0,,,,,,,,,,,,,,,,,1,1.27076080674,2020_mar_13_1518,99.9337156132,Control Task #6k,001,NENA_003_B,
DLF,ZLF,1,De två bokstavssträngar är lika.,Tryck på någon av knapparna för att fortsätta.,Den första bokstaven i strängen är olika.,    OLIKA              LIKA  ,4,,,,,,,,0,0,0,0,,,,,,,,,,,,,,,,,,,,,,,2020_mar_13_1518,99.9337156132,Control Task #6k,001,NENA_003_B,
FLD,FLD,2,De två bokstavssträngar är lika.,Tryck på någon av knapparna för att fortsätta.,Den första bokstaven i strängen är olika.,    OLIKA              LIKA  ,8,,,,,,,,0,1,1,1,,,,,0,0,0,0,,,,,,,,,,,,,1,0.670693836917,2020_mar_13_1518,99.9337156132,Control Task #6k,001,NENA_003_B,
FLD,FLD,2,De två bokstavssträngar är lika.,Tryck på någon av knapparna för att fortsätta.,Den första bokstaven i strängen är olika.,    OLIKA              LIKA  ,8,,,,,,,,0,1,1,1,,,,,,,,,,,,,,,,,,,,,,,2020_mar_13_1518,99.9337156132,Control Task #6k,001,NENA_003_B,
JKY,JKY,1,,Tryck på någon av knapparna för att fortsätta.,,    OLIKA              LIKA  ,8,None,None,None,,,,,,,,,,,,,,,,,0,0,0,0,,,,,,,,,1,1.10076777956,2020_mar_13_1518,99.9337156132,Control Task #6k,001,NENA_003_B,
FDW,FDW,1,,Tryck på någon av knapparna för att fortsätta.,,    OLIKA              LIKA  ,8,None,None,None,,,,,,,,,,,,,,,,,0,1,1,2,,,,,,,,,1,0.690679583377,2020_mar_13_1518,99.9337156132,Control Task #6k,001,NENA_003_B,
RNL,RPL,1,,Tryck på någon av knapparna för att fortsätta.,,    OLIKA              LIKA  ,4,None,P,None,,,,,,,,,,,,,,,,,0,2,2,4,,,,,,,,,1,1.03066499627,2020_mar_13_1518,99.9337156132,Control Task #6k,001,NENA_003_B,
WWT,WWT,1,,Tryck på någon av knapparna för att fortsätta.,,    OLIKA              LIKA  ,8,None,None,None,,,,,,,,,,,,,,,,,0,3,3,1,,,,,,,,,1,1.43075358375,2020_mar_13_1518,99.9337156132,Control Task #6k,001,NENA_003_B,
GWG,GWX,1,,Tryck på någon av knapparna för att fortsätta.,,    OLIKA              LIKA  ,4,X,None,None,,,,,,,,,,,,,,,,,0,4,4,5,,,,,,,,,1,0.910790288863,2020_mar_13_1518,99.9337156132,Control Task #6k,001,NENA_003_B,
JPB,SPB,1,,Tryck på någon av knapparna för att fortsätta.,,    OLIKA              LIKA  ,4,None,None,S,,,,,,,,,,,,,,,,,0,5,5,3,,,,,,,,,1,2.22104821892,2020_mar_13_1518,99.9337156132,Control Task #6k,001,NENA_003_B,
VXL,VXD,,,,,    OLIKA              LIKA  ,4,D,None,None,24,None,None,None,,,,,,,,,,,,,,,,,0,0,0,23,,,,,1,1.34076159575,2020_mar_13_1518,99.9337156132,Control Task #6k,001,NENA_003_B,
KTM,XTM,,,,,    OLIKA              LIKA  ,4,None,None,X,16,None,None,None,,,,,,,,,,,,,,,,,0,1,1,15,,,,,1,0.830831907659,2020_mar_13_1518,99.9337156132,Control Task #6k,001,NENA_003_B,
TLJ,TXJ,,,,,    OLIKA              LIKA  ,4,None,X,None,17,None,None,None,,,,,,,,,,,,,,,,,0,2,2,16,,,,,1,0.780553860997,2020_mar_13_1518,99.9337156132,Control Task #6k,001,NENA_003_B,
NLX,NLX,,,,,    OLIKA              LIKA  ,8,None,None,None,9,None,None,None,,,,,,,,,,,,,,,,,0,3,3,8,,,,,1,0.499960549385,2020_mar_13_1518,99.9337156132,Control Task #6k,001,NENA_003_B,
QNB,QNB,,,,,    OLIKA              LIKA  ,8,None,None,None,1,None,None,None,,,,,,,,,,,,,,,,,0,4,4,0,,,,,1,0.500016036834,2020_mar_13_1518,99.9337156132,Control Task #6k,001,NENA_003_B,
KTS,KTS,,,,,    OLIKA              LIKA  ,8,None,None,None,11,None,None,None,,,,,,,,,,,,,,,,,0,5,5,10,,,,,1,0.520064006219,2020_mar_13_1518,99.9337156132,Control Task #6k,001,NENA_003_B,
RBN,RBW,,,,,    OLIKA              LIKA  ,4,W,None,None,21,None,None,None,,,,,,,,,,,,,,,,,0,6,6,20,,,,,1,1.260725917,2020_mar_13_1518,99.9337156132,Control Task #6k,001,NENA_003_B,
XTK,XTK,,,,,    OLIKA              LIKA  ,8,None,None,None,6,None,None,None,,,,,,,,,,,,,,,,,0,7,7,5,,,,,1,1.39081897555,2020_mar_13_1518,99.9337156132,Control Task #6k,001,NENA_003_B,
WJP,WJZ,,,,,    OLIKA              LIKA  ,4,Z,None,None,23,None,None,None,,,,,,,,,,,,,,,,,0,8,8,22,,,,,1,0.80067207172,2020_mar_13_1518,99.9337156132,Control Task #6k,001,NENA_003_B,
VSG,VSG,,,,,    OLIKA              LIKA  ,8,None,None,None,5,None,None,None,,,,,,,,,,,,,,,,,0,9,9,4,,,,,1,0.800727559174,2020_mar_13_1518,99.9337156132,Control Task #6k,001,NENA_003_B,
FHP,FHP,,,,,    OLIKA              LIKA  ,8,None,None,None,12,None,None,None,,,,,,,,,,,,,,,,,0,10,10,11,,,,,1,0.970698455525,2020_mar_13_1518,99.9337156132,Control Task #6k,001,NENA_003_B,
RBT,RBT,,,,,    OLIKA              LIKA  ,8,None,None,None,2,None,None,None,,,,,,,,,,,,,,,,,0,11,11,1,,,,,1,0.650685959621,2020_mar_13_1518,99.9337156132,Control Task #6k,001,NENA_003_B,
SVB,PVB,,,,,    OLIKA              LIKA  ,4,None,None,P,13,None,None,None,,,,,,,,,,,,,,,,,0,12,12,12,,,,,1,0.950688012337,2020_mar_13_1518,99.9337156132,Control Task #6k,001,NENA_003_B,
NRK,NRK,,,,,    OLIKA              LIKA  ,8,None,None,None,10,None,None,None,,,,,,,,,,,,,,,,,0,13,13,9,,,,,1,0.860537259663,2020_mar_13_1518,99.9337156132,Control Task #6k,001,NENA_003_B,
GVN,RVN,,,,,    OLIKA              LIKA  ,4,None,None,R,14,None,None,None,,,,,,,,,,,,,,,,,0,14,14,13,,,,,1,0.840810668475,2020_mar_13_1518,99.9337156132,Control Task #6k,001,NENA_003_B,
HVD,HVD,,,,,    OLIKA              LIKA  ,8,None,None,None,8,None,None,None,,,,,,,,,,,,,,,,,0,15,15,7,,,,,1,0.830412063293,2020_mar_13_1518,99.9337156132,Control Task #6k,001,NENA_003_B,
BLG,BSG,,,,,    OLIKA              LIKA  ,4,None,S,None,19,None,None,None,,,,,,,,,,,,,,,,,0,16,16,18,,,,,1,0.690581117202,2020_mar_13_1518,99.9337156132,Control Task #6k,001,NENA_003_B,
WSV,WSV,,,,,    OLIKA              LIKA  ,8,None,None,None,7,None,None,None,,,,,,,,,,,,,,,,,0,17,17,6,,,,,1,1.11066635619,2020_mar_13_1518,99.9337156132,Control Task #6k,001,NENA_003_B,
GZK,GZK,,,,,    OLIKA              LIKA  ,8,None,None,None,3,None,None,None,,,,,,,,,,,,,,,,,0,18,18,2,,,,,1,0.720612337715,2020_mar_13_1518,99.9337156132,Control Task #6k,001,NENA_003_B,
CBN,CMN,,,,,    OLIKA              LIKA  ,4,None,M,None,20,None,None,None,,,,,,,,,,,,,,,,,0,19,19,19,,,,,1,0.670640915358,2020_mar_13_1518,99.9337156132,Control Task #6k,001,NENA_003_B,
BGQ,BWQ,,,,,    OLIKA              LIKA  ,4,None,W,None,18,None,None,None,,,,,,,,,,,,,,,,,0,20,20,17,,,,,1,0.910734801409,2020_mar_13_1518,99.9337156132,Control Task #6k,001,NENA_003_B,
ZLW,ZLW,,,,,    OLIKA              LIKA  ,8,None,None,None,4,None,None,None,,,,,,,,,,,,,,,,,0,21,21,3,,,,,1,0.740461450334,2020_mar_13_1518,99.9337156132,Control Task #6k,001,NENA_003_B,
ZKJ,ZKV,,,,,    OLIKA              LIKA  ,4,V,None,None,22,None,None,None,,,,,,,,,,,,,,,,,0,22,22,21,,,,,1,0.720661089696,2020_mar_13_1518,99.9337156132,Control Task #6k,001,NENA_003_B,
FRQ,MRQ,,,,,    OLIKA              LIKA  ,4,None,None,M,15,None,None,None,,,,,,,,,,,,,,,,,0,23,23,14,,,,,1,0.690652000019,2020_mar_13_1518,99.9337156132,Control Task #6k,001,NENA_003_B,
PZBQJM,PZBQJH,,,,,    OLIKA              LIKA  ,4,None,None,None,47,H,None,None,,,,,,,,,,,,,,,,,,,,,0,0,0,22,1,1.55086659854,2020_mar_13_1518,99.9337156132,Control Task #6k,001,NENA_003_B,
PBRJNQ,PBRJNQ,,,,,    OLIKA              LIKA  ,8,None,None,None,25,None,None,None,,,,,,,,,,,,,,,,,,,,,0,1,1,0,1,1.57079365018,2020_mar_13_1518,99.9337156132,Control Task #6k,001,NENA_003_B,
MLVDZG,MLVDZG,,,,,    OLIKA              LIKA  ,8,None,None,None,26,None,None,None,,,,,,,,,,,,,,,,,,,,,0,2,2,1,1,1.08066464346,2020_mar_13_1518,99.9337156132,Control Task #6k,001,NENA_003_B,
NMHJKR,WMHJKR,,,,,    OLIKA              LIKA  ,4,None,None,W,38,None,None,None,,,,,,,,,,,,,,,,,,,,,0,3,3,13,1,2.56105063086,2020_mar_13_1518,99.9337156132,Control Task #6k,001,NENA_003_B,
DVBWHP,DCBWHP,,,,,    OLIKA              LIKA  ,4,None,C,None,40,None,None,None,,,,,,,,,,,,,,,,,,,,,0,4,4,15,1,1.15075267286,2020_mar_13_1518,99.9337156132,Control Task #6k,001,NENA_003_B,
JRTLNM,JRTLNM,,,,,    OLIKA              LIKA  ,8,None,None,None,30,None,None,None,,,,,,,,,,,,,,,,,,,,,0,5,5,5,1,1.94070411974,2020_mar_13_1518,99.9337156132,Control Task #6k,001,NENA_003_B,
DRLGHS,DRFGHS,,,,,    OLIKA              LIKA  ,4,F,None,None,42,None,None,None,,,,,,,,,,,,,,,,,,,,,0,6,6,17,1,1.31081729489,2020_mar_13_1518,99.9337156132,Control Task #6k,001,NENA_003_B,
HVNPDS,HVNPMS,,,,,    OLIKA              LIKA  ,4,None,None,None,46,None,None,M,,,,,,,,,,,,,,,,,,,,,0,7,7,21,1,1.92089798584,2020_mar_13_1518,99.9337156132,Control Task #6k,001,NENA_003_B,
HNDKLM,HNDKLM,,,,,    OLIKA              LIKA  ,8,None,None,None,28,None,None,None,,,,,,,,,,,,,,,,,,,,,0,8,8,3,1,2.25102972524,2020_mar_13_1518,99.9337156132,Control Task #6k,001,NENA_003_B,
PXVFWM,PXVFZM,,,,,    OLIKA              LIKA  ,4,None,None,None,45,None,None,Z,,,,,,,,,,,,,,,,,,,,,0,9,9,20,1,1.57086421226,2020_mar_13_1518,99.9337156132,Control Task #6k,001,NENA_003_B,
GJHSCJ,GJVSCJ,,,,,    OLIKA              LIKA  ,4,V,None,None,41,None,None,None,,,,,,,,,,,,,,,,,,,,,0,10,10,16,1,1.11073659753,2020_mar_13_1518,99.9337156132,Control Task #6k,001,NENA_003_B,
RDNCQM,RDNCQB,,,,,    OLIKA              LIKA  ,4,None,None,None,48,B,None,None,,,,,,,,,,,,,,,,,,,,,0,11,11,23,1,1.1104681409,2020_mar_13_1518,99.9337156132,Control Task #6k,001,NENA_003_B,
XDPVFN,XDPVFN,,,,,    OLIKA              LIKA  ,8,None,None,None,32,None,None,None,,,,,,,,,,,,,,,,,,,,,0,12,12,7,1,1.38085304421,2020_mar_13_1518,99.9337156132,Control Task #6k,001,NENA_003_B,
BKDXWF,BKDXWF,,,,,    OLIKA              LIKA  ,8,None,None,None,35,None,None,None,,,,,,,,,,,,,,,,,,,,,0,13,13,10,1,1.73083517917,2020_mar_13_1518,99.9337156132,Control Task #6k,001,NENA_003_B,
MNTWLX,MNTWLX,,,,,    OLIKA              LIKA  ,8,None,None,None,33,None,None,None,,,,,,,,,,,,,,,,,,,,,0,14,14,8,1,1.72097252505,2020_mar_13_1518,99.9337156132,Control Task #6k,001,NENA_003_B,
QJZTBL,QJZCBL,,,,,    OLIKA              LIKA  ,4,None,None,None,44,None,C,None,,,,,,,,,,,,,,,,,,,,,0,15,15,19,1,1.43078533669,2020_mar_13_1518,99.9337156132,Control Task #6k,001,NENA_003_B,
QGNXBF,QGNXBF,,,,,    OLIKA              LIKA  ,8,None,None,None,29,None,None,None,,,,,,,,,,,,,,,,,,,,,0,16,16,4,1,1.24058268881,2020_mar_13_1518,99.9337156132,Control Task #6k,001,NENA_003_B,
KWDCXG,KWDCXG,,,,,    OLIKA              LIKA  ,8,None,None,None,34,None,None,None,,,,,,,,,,,,,,,,,,,,,0,17,17,9,1,1.34083728962,2020_mar_13_1518,99.9337156132,Control Task #6k,001,NENA_003_B,
QVPSKN,RVPSKN,,,,,    OLIKA              LIKA  ,4,None,None,R,37,None,None,None,,,,,,,,,,,,,,,,,,,,,0,18,18,12,1,0.79054545128,2020_mar_13_1518,99.9337156132,Control Task #6k,001,NENA_003_B,
ZKSWVJ,ZKSWVJ,,,,,    OLIKA              LIKA  ,8,None,None,None,27,None,None,None,,,,,,,,,,,,,,,,,,,,,0,19,19,2,1,1.28071711599,2020_mar_13_1518,99.9337156132,Control Task #6k,001,NENA_003_B,
DWQRVK,DPQRVK,,,,,    OLIKA              LIKA  ,4,None,P,None,39,None,None,None,,,,,,,,,,,,,,,,,,,,,0,20,20,14,1,0.790694593854,2020_mar_13_1518,99.9337156132,Control Task #6k,001,NENA_003_B,
CJDHXN,CJDBXN,,,,,    OLIKA              LIKA  ,4,None,None,None,43,None,B,None,,,,,,,,,,,,,,,,,,,,,0,21,21,18,1,1.4108666242,2020_mar_13_1518,99.9337156132,Control Task #6k,001,NENA_003_B,
JZVSPX,JZVSPX,,,,,    OLIKA              LIKA  ,8,None,None,None,31,None,None,None,,,,,,,,,,,,,,,,,,,,,0,22,22,6,1,2.29106087519,2020_mar_13_1518,99.9337156132,Control Task #6k,001,NENA_003_B,
NKZRGP,NKZRGP,,,,,    OLIKA              LIKA  ,8,None,None,None,36,None,None,None,,,,,,,,,,,,,,,,,,,,,0,23,23,11,1,1.83095314614,2020_mar_13_1518,99.9337156132,Control Task #6k,001,NENA_003_B,
