upper,lower,BlockSelect,feed_2,moveon,feed_1,judgment,correct,third,second,first,item_number,sixth,fourth,fifth,practice1.thisRepN,practice1.thisTrialN,practice1.thisN,practice1.thisIndex,trials.thisRepN,trials.thisTrialN,trials.thisN,trials.thisIndex,trials_2.thisRepN,trials_2.thisTrialN,trials_2.thisN,trials_2.thisIndex,practice2.thisRepN,practice2.thisTrialN,practice2.thisN,practice2.thisIndex,block1.thisRepN,block1.thisTrialN,block1.thisN,block1.thisIndex,blcok2.thisRepN,blcok2.thisTrialN,blcok2.thisN,blcok2.thisIndex,response,RT,date,frameRate,expName,session,participant,
DLF,ZLF,1,De två bokstavssträngar är lika.,Tryck på någon av knapparna för att fortsätta.,Den första bokstaven i strängen är olika.,    OLIKA              LIKA  ,4,,,,,,,,0,0,0,0,0,0,0,0,,,,,,,,,,,,,,,,,1,3.5412302523,2021_jan_22_1259,99.9837092801,Control Task #6k,001,026,
DLF,ZLF,1,De två bokstavssträngar är lika.,Tryck på någon av knapparna för att fortsätta.,Den första bokstaven i strängen är olika.,    OLIKA              LIKA  ,4,,,,,,,,0,0,0,0,,,,,,,,,,,,,,,,,,,,,,,2021_jan_22_1259,99.9837092801,Control Task #6k,001,026,
FLD,FLD,2,De två bokstavssträngar är lika.,Tryck på någon av knapparna för att fortsätta.,Den första bokstaven i strängen är olika.,    OLIKA              LIKA  ,8,,,,,,,,0,1,1,1,,,,,0,0,0,0,,,,,,,,,,,,,1,1.46091386579,2021_jan_22_1259,99.9837092801,Control Task #6k,001,026,
FLD,FLD,2,De två bokstavssträngar är lika.,Tryck på någon av knapparna för att fortsätta.,Den första bokstaven i strängen är olika.,    OLIKA              LIKA  ,8,,,,,,,,0,1,1,1,,,,,,,,,,,,,,,,,,,,,,,2021_jan_22_1259,99.9837092801,Control Task #6k,001,026,
JKY,JKY,1,,Tryck på någon av knapparna för att fortsätta.,,    OLIKA              LIKA  ,8,None,None,None,,,,,,,,,,,,,,,,,0,0,0,0,,,,,,,,,1,1.78095195636,2021_jan_22_1259,99.9837092801,Control Task #6k,001,026,
GWG,GWX,1,,Tryck på någon av knapparna för att fortsätta.,,    OLIKA              LIKA  ,4,X,None,None,,,,,,,,,,,,,,,,,0,1,1,5,,,,,,,,,1,1.42049154669,2021_jan_22_1259,99.9837092801,Control Task #6k,001,026,
FDW,FDW,1,,Tryck på någon av knapparna för att fortsätta.,,    OLIKA              LIKA  ,8,None,None,None,,,,,,,,,,,,,,,,,0,2,2,2,,,,,,,,,1,1.20037705688,2021_jan_22_1259,99.9837092801,Control Task #6k,001,026,
WWT,WWT,1,,Tryck på någon av knapparna för att fortsätta.,,    OLIKA              LIKA  ,8,None,None,None,,,,,,,,,,,,,,,,,0,3,3,1,,,,,,,,,1,1.56048433655,2021_jan_22_1259,99.9837092801,Control Task #6k,001,026,
JPB,SPB,1,,Tryck på någon av knapparna för att fortsätta.,,    OLIKA              LIKA  ,4,None,None,S,,,,,,,,,,,,,,,,,0,4,4,3,,,,,,,,,1,1.38088100963,2021_jan_22_1259,99.9837092801,Control Task #6k,001,026,
RNL,RPL,1,,Tryck på någon av knapparna för att fortsätta.,,    OLIKA              LIKA  ,4,None,P,None,,,,,,,,,,,,,,,,,0,5,5,4,,,,,,,,,0,1.30074583877,2021_jan_22_1259,99.9837092801,Control Task #6k,001,026,
RBN,RBW,,,,,    OLIKA              LIKA  ,4,W,None,None,21,None,None,None,,,,,,,,,,,,,,,,,0,0,0,20,,,,,1,2.28083617077,2021_jan_22_1259,99.9837092801,Control Task #6k,001,026,
GZK,GZK,,,,,    OLIKA              LIKA  ,8,None,None,None,3,None,None,None,,,,,,,,,,,,,,,,,0,1,1,2,,,,,1,2.2407079663,2021_jan_22_1259,99.9837092801,Control Task #6k,001,026,
XTK,XTK,,,,,    OLIKA              LIKA  ,8,None,None,None,6,None,None,None,,,,,,,,,,,,,,,,,0,2,2,5,,,,,1,1.69049486951,2021_jan_22_1259,99.9837092801,Control Task #6k,001,026,
WJP,WJZ,,,,,    OLIKA              LIKA  ,4,Z,None,None,23,None,None,None,,,,,,,,,,,,,,,,,0,3,3,22,,,,,1,1.72089483975,2021_jan_22_1259,99.9837092801,Control Task #6k,001,026,
FRQ,MRQ,,,,,    OLIKA              LIKA  ,4,None,None,M,15,None,None,None,,,,,,,,,,,,,,,,,0,4,4,14,,,,,1,2.07090600135,2021_jan_22_1259,99.9837092801,Control Task #6k,001,026,
ZLW,ZLW,,,,,    OLIKA              LIKA  ,8,None,None,None,4,None,None,None,,,,,,,,,,,,,,,,,0,5,5,3,,,,,1,1.49079456494,2021_jan_22_1259,99.9837092801,Control Task #6k,001,026,
WSV,WSV,,,,,    OLIKA              LIKA  ,8,None,None,None,7,None,None,None,,,,,,,,,,,,,,,,,0,6,6,6,,,,,1,1.80084558758,2021_jan_22_1259,99.9837092801,Control Task #6k,001,026,
QNB,QNB,,,,,    OLIKA              LIKA  ,8,None,None,None,1,None,None,None,,,,,,,,,,,,,,,,,0,7,7,0,,,,,1,1.23081294951,2021_jan_22_1259,99.9837092801,Control Task #6k,001,026,
NLX,NLX,,,,,    OLIKA              LIKA  ,8,None,None,None,9,None,None,None,,,,,,,,,,,,,,,,,0,8,8,8,,,,,1,1.2008337845,2021_jan_22_1259,99.9837092801,Control Task #6k,001,026,
KTS,KTS,,,,,    OLIKA              LIKA  ,8,None,None,None,11,None,None,None,,,,,,,,,,,,,,,,,0,9,9,10,,,,,1,0.960526417075,2021_jan_22_1259,99.9837092801,Control Task #6k,001,026,
HVD,HVD,,,,,    OLIKA              LIKA  ,8,None,None,None,8,None,None,None,,,,,,,,,,,,,,,,,0,10,10,7,,,,,1,1.12033682379,2021_jan_22_1259,99.9837092801,Control Task #6k,001,026,
TLJ,TXJ,,,,,    OLIKA              LIKA  ,4,None,X,None,17,None,None,None,,,,,,,,,,,,,,,,,0,11,11,16,,,,,1,1.26085465798,2021_jan_22_1259,99.9837092801,Control Task #6k,001,026,
KTM,XTM,,,,,    OLIKA              LIKA  ,4,None,None,X,16,None,None,None,,,,,,,,,,,,,,,,,0,12,12,15,,,,,1,1.38084765311,2021_jan_22_1259,99.9837092801,Control Task #6k,001,026,
GVN,RVN,,,,,    OLIKA              LIKA  ,4,None,None,R,14,None,None,None,,,,,,,,,,,,,,,,,0,13,13,13,,,,,1,1.42080939576,2021_jan_22_1259,99.9837092801,Control Task #6k,001,026,
RBT,RBT,,,,,    OLIKA              LIKA  ,8,None,None,None,2,None,None,None,,,,,,,,,,,,,,,,,0,14,14,1,,,,,1,1.52035324546,2021_jan_22_1259,99.9837092801,Control Task #6k,001,026,
ZKJ,ZKV,,,,,    OLIKA              LIKA  ,4,V,None,None,22,None,None,None,,,,,,,,,,,,,,,,,0,15,15,21,,,,,1,2.06090289663,2021_jan_22_1259,99.9837092801,Control Task #6k,001,026,
BGQ,BWQ,,,,,    OLIKA              LIKA  ,4,None,W,None,18,None,None,None,,,,,,,,,,,,,,,,,0,16,16,17,,,,,1,1.39086198358,2021_jan_22_1259,99.9837092801,Control Task #6k,001,026,
BLG,BSG,,,,,    OLIKA              LIKA  ,4,None,S,None,19,None,None,None,,,,,,,,,,,,,,,,,0,17,17,18,,,,,1,1.09067582859,2021_jan_22_1259,99.9837092801,Control Task #6k,001,026,
VXL,VXD,,,,,    OLIKA              LIKA  ,4,D,None,None,24,None,None,None,,,,,,,,,,,,,,,,,0,18,18,23,,,,,1,1.91085600507,2021_jan_22_1259,99.9837092801,Control Task #6k,001,026,
CBN,CMN,,,,,    OLIKA              LIKA  ,4,None,M,None,20,None,None,None,,,,,,,,,,,,,,,,,0,19,19,19,,,,,1,1.07077385825,2021_jan_22_1259,99.9837092801,Control Task #6k,001,026,
NRK,NRK,,,,,    OLIKA              LIKA  ,8,None,None,None,10,None,None,None,,,,,,,,,,,,,,,,,0,20,20,9,,,,,1,1.29088353702,2021_jan_22_1259,99.9837092801,Control Task #6k,001,026,
SVB,PVB,,,,,    OLIKA              LIKA  ,4,None,None,P,13,None,None,None,,,,,,,,,,,,,,,,,0,21,21,12,,,,,1,1.09065850886,2021_jan_22_1259,99.9837092801,Control Task #6k,001,026,
FHP,FHP,,,,,    OLIKA              LIKA  ,8,None,None,None,12,None,None,None,,,,,,,,,,,,,,,,,0,22,22,11,,,,,1,1.55079876016,2021_jan_22_1259,99.9837092801,Control Task #6k,001,026,
VSG,VSG,,,,,    OLIKA              LIKA  ,8,None,None,None,5,None,None,None,,,,,,,,,,,,,,,,,0,23,23,4,,,,,1,1.2206113094,2021_jan_22_1259,99.9837092801,Control Task #6k,001,026,
QGNXBF,QGNXBF,,,,,    OLIKA              LIKA  ,8,None,None,None,29,None,None,None,,,,,,,,,,,,,,,,,,,,,0,0,0,4,1,5.17109228464,2021_jan_22_1259,99.9837092801,Control Task #6k,001,026,
PZBQJM,PZBQJH,,,,,    OLIKA              LIKA  ,4,None,None,None,47,H,None,None,,,,,,,,,,,,,,,,,,,,,0,1,1,22,1,3.80132380449,2021_jan_22_1259,99.9837092801,Control Task #6k,001,026,
JZVSPX,JZVSPX,,,,,    OLIKA              LIKA  ,8,None,None,None,31,None,None,None,,,,,,,,,,,,,,,,,,,,,0,2,2,6,1,3.39108714004,2021_jan_22_1259,99.9837092801,Control Task #6k,001,026,
GJHSCJ,GJVSCJ,,,,,    OLIKA              LIKA  ,4,V,None,None,41,None,None,None,,,,,,,,,,,,,,,,,,,,,0,3,3,16,1,2.95088381927,2021_jan_22_1259,99.9837092801,Control Task #6k,001,026,
BKDXWF,BKDXWF,,,,,    OLIKA              LIKA  ,8,None,None,None,35,None,None,None,,,,,,,,,,,,,,,,,,,,,0,4,4,10,1,3.6110537707,2021_jan_22_1259,99.9837092801,Control Task #6k,001,026,
HVNPDS,HVNPMS,,,,,    OLIKA              LIKA  ,4,None,None,None,46,None,None,M,,,,,,,,,,,,,,,,,,,,,0,5,5,21,1,2.42098836628,2021_jan_22_1259,99.9837092801,Control Task #6k,001,026,
CJDHXN,CJDBXN,,,,,    OLIKA              LIKA  ,4,None,None,None,43,None,B,None,,,,,,,,,,,,,,,,,,,,,0,6,6,18,1,2.85102115829,2021_jan_22_1259,99.9837092801,Control Task #6k,001,026,
MLVDZG,MLVDZG,,,,,    OLIKA              LIKA  ,8,None,None,None,26,None,None,None,,,,,,,,,,,,,,,,,,,,,0,7,7,1,1,4.10095572821,2021_jan_22_1259,99.9837092801,Control Task #6k,001,026,
QJZTBL,QJZCBL,,,,,    OLIKA              LIKA  ,4,None,None,None,44,None,C,None,,,,,,,,,,,,,,,,,,,,,0,8,8,19,1,4.59152449523,2021_jan_22_1259,99.9837092801,Control Task #6k,001,026,
NMHJKR,WMHJKR,,,,,    OLIKA              LIKA  ,4,None,None,W,38,None,None,None,,,,,,,,,,,,,,,,,,,,,0,9,9,13,1,1.72088714209,2021_jan_22_1259,99.9837092801,Control Task #6k,001,026,
JRTLNM,JRTLNM,,,,,    OLIKA              LIKA  ,8,None,None,None,30,None,None,None,,,,,,,,,,,,,,,,,,,,,0,10,10,5,1,4.59143116114,2021_jan_22_1259,99.9837092801,Control Task #6k,001,026,
PXVFWM,PXVFZM,,,,,    OLIKA              LIKA  ,4,None,None,None,45,None,None,Z,,,,,,,,,,,,,,,,,,,,,0,11,11,20,1,2.5310125754,2021_jan_22_1259,99.9837092801,Control Task #6k,001,026,
ZKSWVJ,ZKSWVJ,,,,,    OLIKA              LIKA  ,8,None,None,None,27,None,None,None,,,,,,,,,,,,,,,,,,,,,0,12,12,2,1,3.71090905475,2021_jan_22_1259,99.9837092801,Control Task #6k,001,026,
MNTWLX,MNTWLX,,,,,    OLIKA              LIKA  ,8,None,None,None,33,None,None,None,,,,,,,,,,,,,,,,,,,,,0,13,13,8,1,3.44123384454,2021_jan_22_1259,99.9837092801,Control Task #6k,001,026,
DWQRVK,DPQRVK,,,,,    OLIKA              LIKA  ,4,None,P,None,39,None,None,None,,,,,,,,,,,,,,,,,,,,,0,14,14,14,1,1.77084012224,2021_jan_22_1259,99.9837092801,Control Task #6k,001,026,
KWDCXG,KWDCXG,,,,,    OLIKA              LIKA  ,8,None,None,None,34,None,None,None,,,,,,,,,,,,,,,,,,,,,0,15,15,9,1,2.79113788043,2021_jan_22_1259,99.9837092801,Control Task #6k,001,026,
XDPVFN,XDPVFN,,,,,    OLIKA              LIKA  ,8,None,None,None,32,None,None,None,,,,,,,,,,,,,,,,,,,,,0,16,16,7,1,4.05138185765,2021_jan_22_1259,99.9837092801,Control Task #6k,001,026,
DVBWHP,DCBWHP,,,,,    OLIKA              LIKA  ,4,None,C,None,40,None,None,None,,,,,,,,,,,,,,,,,,,,,0,17,17,15,1,1.75084225192,2021_jan_22_1259,99.9837092801,Control Task #6k,001,026,
NKZRGP,NKZRGP,,,,,    OLIKA              LIKA  ,8,None,None,None,36,None,None,None,,,,,,,,,,,,,,,,,,,,,0,18,18,11,1,4.03123869407,2021_jan_22_1259,99.9837092801,Control Task #6k,001,026,
PBRJNQ,PBRJNQ,,,,,    OLIKA              LIKA  ,8,None,None,None,25,None,None,None,,,,,,,,,,,,,,,,,,,,,0,19,19,0,1,4.47147889944,2021_jan_22_1259,99.9837092801,Control Task #6k,001,026,
HNDKLM,HNDKLM,,,,,    OLIKA              LIKA  ,8,None,None,None,28,None,None,None,,,,,,,,,,,,,,,,,,,,,0,20,20,3,1,3.58126287754,2021_jan_22_1259,99.9837092801,Control Task #6k,001,026,
RDNCQM,RDNCQB,,,,,    OLIKA              LIKA  ,4,None,None,None,48,B,None,None,,,,,,,,,,,,,,,,,,,,,0,21,21,23,1,1.71074932838,2021_jan_22_1259,99.9837092801,Control Task #6k,001,026,
DRLGHS,DRFGHS,,,,,    OLIKA              LIKA  ,4,F,None,None,42,None,None,None,,,,,,,,,,,,,,,,,,,,,0,22,22,17,1,2.50110685887,2021_jan_22_1259,99.9837092801,Control Task #6k,001,026,
QVPSKN,RVPSKN,,,,,    OLIKA              LIKA  ,4,None,None,R,37,None,None,None,,,,,,,,,,,,,,,,,,,,,0,23,23,12,1,1.36065381329,2021_jan_22_1259,99.9837092801,Control Task #6k,001,026,
