upper,lower,BlockSelect,feed_2,moveon,feed_1,judgment,correct,third,second,first,item_number,sixth,fourth,fifth,practice1.thisRepN,practice1.thisTrialN,practice1.thisN,practice1.thisIndex,trials.thisRepN,trials.thisTrialN,trials.thisN,trials.thisIndex,trials_2.thisRepN,trials_2.thisTrialN,trials_2.thisN,trials_2.thisIndex,practice2.thisRepN,practice2.thisTrialN,practice2.thisN,practice2.thisIndex,block1.thisRepN,block1.thisTrialN,block1.thisN,block1.thisIndex,blcok2.thisRepN,blcok2.thisTrialN,blcok2.thisN,blcok2.thisIndex,response,RT,date,frameRate,expName,session,participant,
DLF,ZLF,1,De två bokstavssträngar är lika.,Tryck på någon av knapparna för att fortsätta.,Den första bokstaven i strängen är olika.,     LIKA                 OLIKA,8,,,,,,,,0,0,0,0,0,0,0,0,,,,,,,,,,,,,,,,,8,1.85093754981,2021_feb_27_1244,99.9747005922,Control Task #6k,001,030,
DLF,ZLF,1,De två bokstavssträngar är lika.,Tryck på någon av knapparna för att fortsätta.,Den första bokstaven i strängen är olika.,     LIKA                 OLIKA,8,,,,,,,,0,0,0,0,,,,,,,,,,,,,,,,,,,,,,,2021_feb_27_1244,99.9747005922,Control Task #6k,001,030,
FLD,FLD,2,De två bokstavssträngar är lika.,Tryck på någon av knapparna för att fortsätta.,Den första bokstaven i strängen är olika.,     LIKA                 OLIKA,4,,,,,,,,0,1,1,1,,,,,0,0,0,0,,,,,,,,,,,,,0,1.08082047275,2021_feb_27_1244,99.9747005922,Control Task #6k,001,030,
FLD,FLD,2,De två bokstavssträngar är lika.,Tryck på någon av knapparna för att fortsätta.,Den första bokstaven i strängen är olika.,     LIKA                 OLIKA,4,,,,,,,,0,1,1,1,,,,,,,,,,,,,,,,,,,,,,,2021_feb_27_1244,99.9747005922,Control Task #6k,001,030,
RNL,RPL,1,,Tryck på någon av knapparna för att fortsätta.,,     LIKA                 OLIKA,8,None,P,None,,,,,,,,,,,,,,,,,0,0,0,4,,,,,,,,,1,2.3909516813,2021_feb_27_1244,99.9747005922,Control Task #6k,001,030,
GWG,GWX,1,,Tryck på någon av knapparna för att fortsätta.,,     LIKA                 OLIKA,8,X,None,None,,,,,,,,,,,,,,,,,0,1,1,5,,,,,,,,,1,2.0809670476,2021_feb_27_1244,99.9747005922,Control Task #6k,001,030,
WWT,WWT,1,,Tryck på någon av knapparna för att fortsätta.,,     LIKA                 OLIKA,4,None,None,None,,,,,,,,,,,,,,,,,0,2,2,1,,,,,,,,,1,1.04070065984,2021_feb_27_1244,99.9747005922,Control Task #6k,001,030,
FDW,FDW,1,,Tryck på någon av knapparna för att fortsätta.,,     LIKA                 OLIKA,4,None,None,None,,,,,,,,,,,,,,,,,0,3,3,2,,,,,,,,,1,0.790587200649,2021_feb_27_1244,99.9747005922,Control Task #6k,001,030,
JPB,SPB,1,,Tryck på någon av knapparna för att fortsätta.,,     LIKA                 OLIKA,8,None,None,S,,,,,,,,,,,,,,,,,0,4,4,3,,,,,,,,,1,0.840782831563,2021_feb_27_1244,99.9747005922,Control Task #6k,001,030,
JKY,JKY,1,,Tryck på någon av knapparna för att fortsätta.,,     LIKA                 OLIKA,4,None,None,None,,,,,,,,,,,,,,,,,0,5,5,0,,,,,,,,,1,1.54066361521,2021_feb_27_1244,99.9747005922,Control Task #6k,001,030,
VSG,VSG,,,Pulse el botón para continuar.,,     LIKA                 OLIKA,4,None,None,None,5,None,None,None,,,,,,,,,,,,,,,,,0,0,0,4,,,,,1,0.850423094553,2021_feb_27_1244,99.9747005922,Control Task #6k,001,030,
GZK,GZK,,,Pulse el botón para continuar.,,     LIKA                 OLIKA,4,None,None,None,3,None,None,None,,,,,,,,,,,,,,,,,0,1,1,2,,,,,1,0.78045653735,2021_feb_27_1244,99.9747005922,Control Task #6k,001,030,
FHP,FHP,,,Pulse el botón para continuar.,,     LIKA                 OLIKA,4,None,None,None,12,None,None,None,,,,,,,,,,,,,,,,,0,2,2,11,,,,,1,0.650351635304,2021_feb_27_1244,99.9747005922,Control Task #6k,001,030,
CBN,CMN,,,Pulse el botón para continuar.,,     LIKA                 OLIKA,8,None,M,None,20,None,None,None,,,,,,,,,,,,,,,,,0,3,3,19,,,,,1,0.860758385317,2021_feb_27_1244,99.9747005922,Control Task #6k,001,030,
KTM,XTM,,,Pulse el botón para continuar.,,     LIKA                 OLIKA,8,None,None,X,16,None,None,None,,,,,,,,,,,,,,,,,0,4,4,15,,,,,1,0.82041181438,2021_feb_27_1244,99.9747005922,Control Task #6k,001,030,
RBN,RBW,,,Pulse el botón para continuar.,,     LIKA                 OLIKA,8,W,None,None,21,None,None,None,,,,,,,,,,,,,,,,,0,5,5,20,,,,,0,0.529986744117,2021_feb_27_1244,99.9747005922,Control Task #6k,001,030,
KTS,KTS,,,Pulse el botón para continuar.,,     LIKA                 OLIKA,4,None,None,None,11,None,None,None,,,,,,,,,,,,,,,,,0,6,6,10,,,,,1,1.44041411724,2021_feb_27_1244,99.9747005922,Control Task #6k,001,030,
FRQ,MRQ,,,Pulse el botón para continuar.,,     LIKA                 OLIKA,8,None,None,M,15,None,None,None,,,,,,,,,,,,,,,,,0,7,7,14,,,,,0,1.01068360649,2021_feb_27_1244,99.9747005922,Control Task #6k,001,030,
TLJ,TXJ,,,Pulse el botón para continuar.,,     LIKA                 OLIKA,8,None,X,None,17,None,None,None,,,,,,,,,,,,,,,,,0,8,8,16,,,,,1,1.38011444385,2021_feb_27_1244,99.9747005922,Control Task #6k,001,030,
RBT,RBT,,,Pulse el botón para continuar.,,     LIKA                 OLIKA,4,None,None,None,2,None,None,None,,,,,,,,,,,,,,,,,0,9,9,1,,,,,1,1.29084555084,2021_feb_27_1244,99.9747005922,Control Task #6k,001,030,
QNB,QNB,,,Pulse el botón para continuar.,,     LIKA                 OLIKA,4,None,None,None,1,None,None,None,,,,,,,,,,,,,,,,,0,10,10,0,,,,,1,1.34074899426,2021_feb_27_1244,99.9747005922,Control Task #6k,001,030,
SVB,PVB,,,Pulse el botón para continuar.,,     LIKA                 OLIKA,8,None,None,P,13,None,None,None,,,,,,,,,,,,,,,,,0,11,11,12,,,,,1,0.830821515136,2021_feb_27_1244,99.9747005922,Control Task #6k,001,030,
XTK,XTK,,,Pulse el botón para continuar.,,     LIKA                 OLIKA,4,None,None,None,6,None,None,None,,,,,,,,,,,,,,,,,0,12,12,5,,,,,1,1.0005619237,2021_feb_27_1244,99.9747005922,Control Task #6k,001,030,
WSV,WSV,,,Pulse el botón para continuar.,,     LIKA                 OLIKA,4,None,None,None,7,None,None,None,,,,,,,,,,,,,,,,,0,13,13,6,,,,,1,0.940265778365,2021_feb_27_1244,99.9747005922,Control Task #6k,001,030,
VXL,VXD,,,Pulse el botón para continuar.,,     LIKA                 OLIKA,8,D,None,None,24,None,None,None,,,,,,,,,,,,,,,,,0,14,14,23,,,,,1,0.650400707409,2021_feb_27_1244,99.9747005922,Control Task #6k,001,030,
HVD,HVD,,,Pulse el botón para continuar.,,     LIKA                 OLIKA,4,None,None,None,8,None,None,None,,,,,,,,,,,,,,,,,0,15,15,7,,,,,1,0.8705721647,2021_feb_27_1244,99.9747005922,Control Task #6k,001,030,
BLG,BSG,,,Pulse el botón para continuar.,,     LIKA                 OLIKA,8,None,S,None,19,None,None,None,,,,,,,,,,,,,,,,,0,16,16,18,,,,,1,1.09074715005,2021_feb_27_1244,99.9747005922,Control Task #6k,001,030,
NLX,NLX,,,Pulse el botón para continuar.,,     LIKA                 OLIKA,4,None,None,None,9,None,None,None,,,,,,,,,,,,,,,,,0,17,17,8,,,,,1,1.05003013284,2021_feb_27_1244,99.9747005922,Control Task #6k,001,030,
ZKJ,ZKV,,,Pulse el botón para continuar.,,     LIKA                 OLIKA,8,V,None,None,22,None,None,None,,,,,,,,,,,,,,,,,0,18,18,21,,,,,1,0.740675097448,2021_feb_27_1244,99.9747005922,Control Task #6k,001,030,
WJP,WJZ,,,Pulse el botón para continuar.,,     LIKA                 OLIKA,8,Z,None,None,23,None,None,None,,,,,,,,,,,,,,,,,0,19,19,22,,,,,1,0.930724621783,2021_feb_27_1244,99.9747005922,Control Task #6k,001,030,
GVN,RVN,,,Pulse el botón para continuar.,,     LIKA                 OLIKA,8,None,None,R,14,None,None,None,,,,,,,,,,,,,,,,,0,20,20,13,,,,,1,0.860768328032,2021_feb_27_1244,99.9747005922,Control Task #6k,001,030,
BGQ,BWQ,,,Pulse el botón para continuar.,,     LIKA                 OLIKA,8,None,W,None,18,None,None,None,,,,,,,,,,,,,,,,,0,21,21,17,,,,,1,0.890674087139,2021_feb_27_1244,99.9747005922,Control Task #6k,001,030,
NRK,NRK,,,Pulse el botón para continuar.,,     LIKA                 OLIKA,4,None,None,None,10,None,None,None,,,,,,,,,,,,,,,,,0,22,22,9,,,,,1,0.760510170274,2021_feb_27_1244,99.9747005922,Control Task #6k,001,030,
ZLW,ZLW,,,Pulse el botón para continuar.,,     LIKA                 OLIKA,4,None,None,None,4,None,None,None,,,,,,,,,,,,,,,,,0,23,23,3,,,,,1,0.870661328392,2021_feb_27_1244,99.9747005922,Control Task #6k,001,030,
PXVFWM,PXVFZM,,,Pulse el botón para continuar.,,     LIKA                 OLIKA,8,None,None,None,45,None,None,Z,,,,,,,,,,,,,,,,,,,,,0,0,0,20,1,3.37102359598,2021_feb_27_1244,99.9747005922,Control Task #6k,001,030,
DRLGHS,DRFGHS,,,Pulse el botón para continuar.,,     LIKA                 OLIKA,8,F,None,None,42,None,None,None,,,,,,,,,,,,,,,,,,,,,0,1,1,17,1,1.92061159879,2021_feb_27_1244,99.9747005922,Control Task #6k,001,030,
QVPSKN,RVPSKN,,,Pulse el botón para continuar.,,     LIKA                 OLIKA,8,None,None,R,37,None,None,None,,,,,,,,,,,,,,,,,,,,,0,2,2,12,0,1.93077016583,2021_feb_27_1244,99.9747005922,Control Task #6k,001,030,
QJZTBL,QJZCBL,,,Pulse el botón para continuar.,,     LIKA                 OLIKA,8,None,None,None,44,None,C,None,,,,,,,,,,,,,,,,,,,,,0,3,3,19,1,2.24094242816,2021_feb_27_1244,99.9747005922,Control Task #6k,001,030,
NMHJKR,WMHJKR,,,Pulse el botón para continuar.,,     LIKA                 OLIKA,8,None,None,W,38,None,None,None,,,,,,,,,,,,,,,,,,,,,0,4,4,13,1,1.92096215963,2021_feb_27_1244,99.9747005922,Control Task #6k,001,030,
ZKSWVJ,ZKSWVJ,,,Pulse el botón para continuar.,,     LIKA                 OLIKA,4,None,None,None,27,None,None,None,,,,,,,,,,,,,,,,,,,,,0,5,5,2,1,1.74077869411,2021_feb_27_1244,99.9747005922,Control Task #6k,001,030,
DWQRVK,DPQRVK,,,Pulse el botón para continuar.,,     LIKA                 OLIKA,8,None,P,None,39,None,None,None,,,,,,,,,,,,,,,,,,,,,0,6,6,14,1,1.03062452111,2021_feb_27_1244,99.9747005922,Control Task #6k,001,030,
KWDCXG,KWDCXG,,,Pulse el botón para continuar.,,     LIKA                 OLIKA,4,None,None,None,34,None,None,None,,,,,,,,,,,,,,,,,,,,,0,7,7,9,1,1.45067820535,2021_feb_27_1244,99.9747005922,Control Task #6k,001,030,
NKZRGP,NKZRGP,,,Pulse el botón para continuar.,,     LIKA                 OLIKA,4,None,None,None,36,None,None,None,,,,,,,,,,,,,,,,,,,,,0,8,8,11,1,1.88083561134,2021_feb_27_1244,99.9747005922,Control Task #6k,001,030,
CJDHXN,CJDBXN,,,Pulse el botón para continuar.,,     LIKA                 OLIKA,8,None,None,None,43,None,B,None,,,,,,,,,,,,,,,,,,,,,0,9,9,18,1,1.86084947341,2021_feb_27_1244,99.9747005922,Control Task #6k,001,030,
GJHSCJ,GJVSCJ,,,Pulse el botón para continuar.,,     LIKA                 OLIKA,8,V,None,None,41,None,None,None,,,,,,,,,,,,,,,,,,,,,0,10,10,16,1,1.67074446231,2021_feb_27_1244,99.9747005922,Control Task #6k,001,030,
MNTWLX,MNTWLX,,,Pulse el botón para continuar.,,     LIKA                 OLIKA,4,None,None,None,33,None,None,None,,,,,,,,,,,,,,,,,,,,,0,11,11,8,1,1.92108981125,2021_feb_27_1244,99.9747005922,Control Task #6k,001,030,
JZVSPX,JZVSPX,,,Pulse el botón para continuar.,,     LIKA                 OLIKA,4,None,None,None,31,None,None,None,,,,,,,,,,,,,,,,,,,,,0,12,12,6,1,2.01094243778,2021_feb_27_1244,99.9747005922,Control Task #6k,001,030,
JRTLNM,JRTLNM,,,Pulse el botón para continuar.,,     LIKA                 OLIKA,4,None,None,None,30,None,None,None,,,,,,,,,,,,,,,,,,,,,0,13,13,5,1,3.2412644438,2021_feb_27_1244,99.9747005922,Control Task #6k,001,030,
PZBQJM,PZBQJH,,,Pulse el botón para continuar.,,     LIKA                 OLIKA,8,None,None,None,47,H,None,None,,,,,,,,,,,,,,,,,,,,,0,14,14,22,1,2.34099435478,2021_feb_27_1244,99.9747005922,Control Task #6k,001,030,
DVBWHP,DCBWHP,,,Pulse el botón para continuar.,,     LIKA                 OLIKA,8,None,C,None,40,None,None,None,,,,,,,,,,,,,,,,,,,,,0,15,15,15,1,1.03081118754,2021_feb_27_1244,99.9747005922,Control Task #6k,001,030,
XDPVFN,XDPVFN,,,Pulse el botón para continuar.,,     LIKA                 OLIKA,4,None,None,None,32,None,None,None,,,,,,,,,,,,,,,,,,,,,0,16,16,7,1,1.84088803189,2021_feb_27_1244,99.9747005922,Control Task #6k,001,030,
BKDXWF,BKDXWF,,,Pulse el botón para continuar.,,     LIKA                 OLIKA,4,None,None,None,35,None,None,None,,,,,,,,,,,,,,,,,,,,,0,17,17,10,1,2.9209628011,2021_feb_27_1244,99.9747005922,Control Task #6k,001,030,
RDNCQM,RDNCQB,,,Pulse el botón para continuar.,,     LIKA                 OLIKA,8,None,None,None,48,B,None,None,,,,,,,,,,,,,,,,,,,,,0,18,18,23,1,1.1807069013,2021_feb_27_1244,99.9747005922,Control Task #6k,001,030,
PBRJNQ,PBRJNQ,,,Pulse el botón para continuar.,,     LIKA                 OLIKA,4,None,None,None,25,None,None,None,,,,,,,,,,,,,,,,,,,,,0,19,19,0,1,1.74068985115,2021_feb_27_1244,99.9747005922,Control Task #6k,001,030,
MLVDZG,MLVDZG,,,Pulse el botón para continuar.,,     LIKA                 OLIKA,4,None,None,None,26,None,None,None,,,,,,,,,,,,,,,,,,,,,0,20,20,1,1,1.47083208648,2021_feb_27_1244,99.9747005922,Control Task #6k,001,030,
HNDKLM,HNDKLM,,,Pulse el botón para continuar.,,     LIKA                 OLIKA,4,None,None,None,28,None,None,None,,,,,,,,,,,,,,,,,,,,,0,21,21,3,1,1.38071389328,2021_feb_27_1244,99.9747005922,Control Task #6k,001,030,
HVNPDS,HVNPMS,,,Pulse el botón para continuar.,,     LIKA                 OLIKA,8,None,None,None,46,None,None,M,,,,,,,,,,,,,,,,,,,,,0,22,22,21,1,0.950580862969,2021_feb_27_1244,99.9747005922,Control Task #6k,001,030,
QGNXBF,QGNXBF,,,Pulse el botón para continuar.,,     LIKA                 OLIKA,4,None,None,None,29,None,None,None,,,,,,,,,,,,,,,,,,,,,0,23,23,4,1,2.90106775126,2021_feb_27_1244,99.9747005922,Control Task #6k,001,030,
