upper,lower,BlockSelect,feed_2,moveon,feed_1,judgment,correct,third,second,first,item_number,sixth,fourth,fifth,practice1.thisRepN,practice1.thisTrialN,practice1.thisN,practice1.thisIndex,trials.thisRepN,trials.thisTrialN,trials.thisN,trials.thisIndex,trials_2.thisRepN,trials_2.thisTrialN,trials_2.thisN,trials_2.thisIndex,practice2.thisRepN,practice2.thisTrialN,practice2.thisN,practice2.thisIndex,block1.thisRepN,block1.thisTrialN,block1.thisN,block1.thisIndex,blcok2.thisRepN,blcok2.thisTrialN,blcok2.thisN,blcok2.thisIndex,response,RT,date,frameRate,expName,session,participant,
DLF,ZLF,1,De två bokstavssträngar är lika.,Tryck på någon av knapparna för att fortsätta.,Den första bokstaven i strängen är olika.,    OLIKA              LIKA  ,4,,,,,,,,0,0,0,0,0,0,0,0,,,,,,,,,,,,,,,,,1,3.49121919083,2020_sep_14_1433,99.9699239447,Control Task #6k,001,NENA_007,
DLF,ZLF,1,De två bokstavssträngar är lika.,Tryck på någon av knapparna för att fortsätta.,Den första bokstaven i strängen är olika.,    OLIKA              LIKA  ,4,,,,,,,,0,0,0,0,,,,,,,,,,,,,,,,,,,,,,,2020_sep_14_1433,99.9699239447,Control Task #6k,001,NENA_007,
FLD,FLD,2,De två bokstavssträngar är lika.,Tryck på någon av knapparna för att fortsätta.,Den första bokstaven i strängen är olika.,    OLIKA              LIKA  ,8,,,,,,,,0,1,1,1,,,,,0,0,0,0,,,,,,,,,,,,,1,1.56052269822,2020_sep_14_1433,99.9699239447,Control Task #6k,001,NENA_007,
FLD,FLD,2,De två bokstavssträngar är lika.,Tryck på någon av knapparna för att fortsätta.,Den första bokstaven i strängen är olika.,    OLIKA              LIKA  ,8,,,,,,,,0,1,1,1,,,,,,,,,,,,,,,,,,,,,,,2020_sep_14_1433,99.9699239447,Control Task #6k,001,NENA_007,
FDW,FDW,1,,Tryck på någon av knapparna för att fortsätta.,,    OLIKA              LIKA  ,8,None,None,None,,,,,,,,,,,,,,,,,0,0,0,2,,,,,,,,,1,1.81084038794,2020_sep_14_1433,99.9699239447,Control Task #6k,001,NENA_007,
GWG,GWX,1,,Tryck på någon av knapparna för att fortsätta.,,    OLIKA              LIKA  ,4,X,None,None,,,,,,,,,,,,,,,,,0,1,1,5,,,,,,,,,1,1.96091694779,2020_sep_14_1433,99.9699239447,Control Task #6k,001,NENA_007,
RNL,RPL,1,,Tryck på någon av knapparna för att fortsätta.,,    OLIKA              LIKA  ,4,None,P,None,,,,,,,,,,,,,,,,,0,2,2,4,,,,,,,,,1,2.14088681137,2020_sep_14_1433,99.9699239447,Control Task #6k,001,NENA_007,
JPB,SPB,1,,Tryck på någon av knapparna för att fortsätta.,,    OLIKA              LIKA  ,4,None,None,S,,,,,,,,,,,,,,,,,0,3,3,3,,,,,,,,,1,1.04065241698,2020_sep_14_1433,99.9699239447,Control Task #6k,001,NENA_007,
WWT,WWT,1,,Tryck på någon av knapparna för att fortsätta.,,    OLIKA              LIKA  ,8,None,None,None,,,,,,,,,,,,,,,,,0,4,4,1,,,,,,,,,1,1.28061383876,2020_sep_14_1433,99.9699239447,Control Task #6k,001,NENA_007,
JKY,JKY,1,,Tryck på någon av knapparna för att fortsätta.,,    OLIKA              LIKA  ,8,None,None,None,,,,,,,,,,,,,,,,,0,5,5,0,,,,,,,,,1,1.42085949743,2020_sep_14_1433,99.9699239447,Control Task #6k,001,NENA_007,
ZKJ,ZKV,,,,,    OLIKA              LIKA  ,4,V,None,None,22,None,None,None,,,,,,,,,,,,,,,,,0,0,0,21,,,,,1,2.23082555707,2020_sep_14_1433,99.9699239447,Control Task #6k,001,NENA_007,
BLG,BSG,,,,,    OLIKA              LIKA  ,4,None,S,None,19,None,None,None,,,,,,,,,,,,,,,,,0,1,1,18,,,,,1,1.14064465515,2020_sep_14_1433,99.9699239447,Control Task #6k,001,NENA_007,
NLX,NLX,,,,,    OLIKA              LIKA  ,8,None,None,None,9,None,None,None,,,,,,,,,,,,,,,,,0,2,2,8,,,,,1,1.36078069883,2020_sep_14_1433,99.9699239447,Control Task #6k,001,NENA_007,
RBT,RBT,,,,,    OLIKA              LIKA  ,8,None,None,None,2,None,None,None,,,,,,,,,,,,,,,,,0,3,3,1,,,,,1,1.43085076698,2020_sep_14_1433,99.9699239447,Control Task #6k,001,NENA_007,
BGQ,BWQ,,,,,    OLIKA              LIKA  ,4,None,W,None,18,None,None,None,,,,,,,,,,,,,,,,,0,4,4,17,,,,,1,1.32039288965,2020_sep_14_1433,99.9699239447,Control Task #6k,001,NENA_007,
SVB,PVB,,,,,    OLIKA              LIKA  ,4,None,None,P,13,None,None,None,,,,,,,,,,,,,,,,,0,5,5,12,,,,,1,1.71084430093,2020_sep_14_1433,99.9699239447,Control Task #6k,001,NENA_007,
XTK,XTK,,,,,    OLIKA              LIKA  ,8,None,None,None,6,None,None,None,,,,,,,,,,,,,,,,,0,6,6,5,,,,,1,1.64062027916,2020_sep_14_1433,99.9699239447,Control Task #6k,001,NENA_007,
GZK,GZK,,,,,    OLIKA              LIKA  ,8,None,None,None,3,None,None,None,,,,,,,,,,,,,,,,,0,7,7,2,,,,,1,1.11082415866,2020_sep_14_1433,99.9699239447,Control Task #6k,001,NENA_007,
WJP,WJZ,,,,,    OLIKA              LIKA  ,4,Z,None,None,23,None,None,None,,,,,,,,,,,,,,,,,0,8,8,22,,,,,1,1.99094688536,2020_sep_14_1433,99.9699239447,Control Task #6k,001,NENA_007,
KTS,KTS,,,,,    OLIKA              LIKA  ,8,None,None,None,11,None,None,None,,,,,,,,,,,,,,,,,0,9,9,10,,,,,1,1.36093112436,2020_sep_14_1433,99.9699239447,Control Task #6k,001,NENA_007,
CBN,CMN,,,,,    OLIKA              LIKA  ,4,None,M,None,20,None,None,None,,,,,,,,,,,,,,,,,0,10,10,19,,,,,1,1.04077942872,2020_sep_14_1433,99.9699239447,Control Task #6k,001,NENA_007,
QNB,QNB,,,,,    OLIKA              LIKA  ,8,None,None,None,1,None,None,None,,,,,,,,,,,,,,,,,0,11,11,0,,,,,1,1.14077711941,2020_sep_14_1433,99.9699239447,Control Task #6k,001,NENA_007,
NRK,NRK,,,,,    OLIKA              LIKA  ,8,None,None,None,10,None,None,None,,,,,,,,,,,,,,,,,0,12,12,9,,,,,1,1.73101286732,2020_sep_14_1433,99.9699239447,Control Task #6k,001,NENA_007,
FRQ,MRQ,,,,,    OLIKA              LIKA  ,4,None,None,M,15,None,None,None,,,,,,,,,,,,,,,,,0,13,13,14,,,,,1,1.02038891252,2020_sep_14_1433,99.9699239447,Control Task #6k,001,NENA_007,
HVD,HVD,,,,,    OLIKA              LIKA  ,8,None,None,None,8,None,None,None,,,,,,,,,,,,,,,,,0,14,14,7,,,,,1,1.10080209839,2020_sep_14_1433,99.9699239447,Control Task #6k,001,NENA_007,
FHP,FHP,,,,,    OLIKA              LIKA  ,8,None,None,None,12,None,None,None,,,,,,,,,,,,,,,,,0,15,15,11,,,,,1,1.69048265103,2020_sep_14_1433,99.9699239447,Control Task #6k,001,NENA_007,
VXL,VXD,,,,,    OLIKA              LIKA  ,4,D,None,None,24,None,None,None,,,,,,,,,,,,,,,,,0,16,16,23,,,,,1,1.55089482337,2020_sep_14_1433,99.9699239447,Control Task #6k,001,NENA_007,
GVN,RVN,,,,,    OLIKA              LIKA  ,4,None,None,R,14,None,None,None,,,,,,,,,,,,,,,,,0,17,17,13,,,,,1,1.08069864155,2020_sep_14_1433,99.9699239447,Control Task #6k,001,NENA_007,
WSV,WSV,,,,,    OLIKA              LIKA  ,8,None,None,None,7,None,None,None,,,,,,,,,,,,,,,,,0,18,18,6,,,,,1,1.1910195643,2020_sep_14_1433,99.9699239447,Control Task #6k,001,NENA_007,
VSG,VSG,,,,,    OLIKA              LIKA  ,8,None,None,None,5,None,None,None,,,,,,,,,,,,,,,,,0,19,19,4,,,,,1,1.51092204751,2020_sep_14_1433,99.9699239447,Control Task #6k,001,NENA_007,
ZLW,ZLW,,,,,    OLIKA              LIKA  ,8,None,None,None,4,None,None,None,,,,,,,,,,,,,,,,,0,20,20,3,,,,,1,2.19096664274,2020_sep_14_1433,99.9699239447,Control Task #6k,001,NENA_007,
TLJ,TXJ,,,,,    OLIKA              LIKA  ,4,None,X,None,17,None,None,None,,,,,,,,,,,,,,,,,0,21,21,16,,,,,1,1.6308140747,2020_sep_14_1433,99.9699239447,Control Task #6k,001,NENA_007,
RBN,RBW,,,,,    OLIKA              LIKA  ,4,W,None,None,21,None,None,None,,,,,,,,,,,,,,,,,0,22,22,20,,,,,1,1.97096498774,2020_sep_14_1433,99.9699239447,Control Task #6k,001,NENA_007,
KTM,XTM,,,,,    OLIKA              LIKA  ,4,None,None,X,16,None,None,None,,,,,,,,,,,,,,,,,0,23,23,15,,,,,1,1.14082522992,2020_sep_14_1433,99.9699239447,Control Task #6k,001,NENA_007,
NKZRGP,NKZRGP,,,,,    OLIKA              LIKA  ,8,None,None,None,36,None,None,None,,,,,,,,,,,,,,,,,,,,,0,0,0,11,1,3.5113544006,2020_sep_14_1433,99.9699239447,Control Task #6k,001,NENA_007,
PBRJNQ,PBRJNQ,,,,,    OLIKA              LIKA  ,8,None,None,None,25,None,None,None,,,,,,,,,,,,,,,,,,,,,0,1,1,0,1,3.68120020963,2020_sep_14_1433,99.9699239447,Control Task #6k,001,NENA_007,
PXVFWM,PXVFZM,,,,,    OLIKA              LIKA  ,4,None,None,None,45,None,None,Z,,,,,,,,,,,,,,,,,,,,,0,2,2,20,1,3.40089427812,2020_sep_14_1433,99.9699239447,Control Task #6k,001,NENA_007,
JRTLNM,JRTLNM,,,,,    OLIKA              LIKA  ,8,None,None,None,30,None,None,None,,,,,,,,,,,,,,,,,,,,,0,3,3,5,1,3.14127426133,2020_sep_14_1433,99.9699239447,Control Task #6k,001,NENA_007,
PZBQJM,PZBQJH,,,,,    OLIKA              LIKA  ,4,None,None,None,47,H,None,None,,,,,,,,,,,,,,,,,,,,,0,4,4,22,1,2.7907937015,2020_sep_14_1433,99.9699239447,Control Task #6k,001,NENA_007,
KWDCXG,KWDCXG,,,,,    OLIKA              LIKA  ,8,None,None,None,34,None,None,None,,,,,,,,,,,,,,,,,,,,,0,5,5,9,1,2.58103862247,2020_sep_14_1433,99.9699239447,Control Task #6k,001,NENA_007,
HNDKLM,HNDKLM,,,,,    OLIKA              LIKA  ,8,None,None,None,28,None,None,None,,,,,,,,,,,,,,,,,,,,,0,6,6,3,1,2.54111299491,2020_sep_14_1433,99.9699239447,Control Task #6k,001,NENA_007,
DVBWHP,DCBWHP,,,,,    OLIKA              LIKA  ,4,None,C,None,40,None,None,None,,,,,,,,,,,,,,,,,,,,,0,7,7,15,1,1.45043430959,2020_sep_14_1433,99.9699239447,Control Task #6k,001,NENA_007,
QJZTBL,QJZCBL,,,,,    OLIKA              LIKA  ,4,None,None,None,44,None,C,None,,,,,,,,,,,,,,,,,,,,,0,8,8,19,1,2.3406422817,2020_sep_14_1433,99.9699239447,Control Task #6k,001,NENA_007,
DWQRVK,DPQRVK,,,,,    OLIKA              LIKA  ,4,None,P,None,39,None,None,None,,,,,,,,,,,,,,,,,,,,,0,9,9,14,1,0.960533667412,2020_sep_14_1433,99.9699239447,Control Task #6k,001,NENA_007,
CJDHXN,CJDBXN,,,,,    OLIKA              LIKA  ,4,None,None,None,43,None,B,None,,,,,,,,,,,,,,,,,,,,,0,10,10,18,1,3.03074870855,2020_sep_14_1433,99.9699239447,Control Task #6k,001,NENA_007,
DRLGHS,DRFGHS,,,,,    OLIKA              LIKA  ,4,F,None,None,42,None,None,None,,,,,,,,,,,,,,,,,,,,,0,11,11,17,1,1.44079777486,2020_sep_14_1433,99.9699239447,Control Task #6k,001,NENA_007,
NMHJKR,WMHJKR,,,,,    OLIKA              LIKA  ,4,None,None,W,38,None,None,None,,,,,,,,,,,,,,,,,,,,,0,12,12,13,1,1.03037601249,2020_sep_14_1433,99.9699239447,Control Task #6k,001,NENA_007,
XDPVFN,XDPVFN,,,,,    OLIKA              LIKA  ,8,None,None,None,32,None,None,None,,,,,,,,,,,,,,,,,,,,,0,13,13,7,1,2.54113961605,2020_sep_14_1433,99.9699239447,Control Task #6k,001,NENA_007,
GJHSCJ,GJVSCJ,,,,,    OLIKA              LIKA  ,4,V,None,None,41,None,None,None,,,,,,,,,,,,,,,,,,,,,0,14,14,16,1,1.33052271746,2020_sep_14_1433,99.9699239447,Control Task #6k,001,NENA_007,
QVPSKN,RVPSKN,,,,,    OLIKA              LIKA  ,4,None,None,R,37,None,None,None,,,,,,,,,,,,,,,,,,,,,0,15,15,12,1,2.21095014404,2020_sep_14_1433,99.9699239447,Control Task #6k,001,NENA_007,
QGNXBF,QGNXBF,,,,,    OLIKA              LIKA  ,8,None,None,None,29,None,None,None,,,,,,,,,,,,,,,,,,,,,0,16,16,4,1,2.80102808948,2020_sep_14_1433,99.9699239447,Control Task #6k,001,NENA_007,
HVNPDS,HVNPMS,,,,,    OLIKA              LIKA  ,4,None,None,None,46,None,None,M,,,,,,,,,,,,,,,,,,,,,0,17,17,21,1,2.56096659784,2020_sep_14_1433,99.9699239447,Control Task #6k,001,NENA_007,
JZVSPX,JZVSPX,,,,,    OLIKA              LIKA  ,8,None,None,None,31,None,None,None,,,,,,,,,,,,,,,,,,,,,0,18,18,6,1,2.94112236042,2020_sep_14_1433,99.9699239447,Control Task #6k,001,NENA_007,
BKDXWF,BKDXWF,,,,,    OLIKA              LIKA  ,8,None,None,None,35,None,None,None,,,,,,,,,,,,,,,,,,,,,0,19,19,10,1,2.95116847594,2020_sep_14_1433,99.9699239447,Control Task #6k,001,NENA_007,
RDNCQM,RDNCQB,,,,,    OLIKA              LIKA  ,4,None,None,None,48,B,None,None,,,,,,,,,,,,,,,,,,,,,0,20,20,23,1,2.02056884582,2020_sep_14_1433,99.9699239447,Control Task #6k,001,NENA_007,
MLVDZG,MLVDZG,,,,,    OLIKA              LIKA  ,8,None,None,None,26,None,None,None,,,,,,,,,,,,,,,,,,,,,0,21,21,1,1,2.29102623562,2020_sep_14_1433,99.9699239447,Control Task #6k,001,NENA_007,
ZKSWVJ,ZKSWVJ,,,,,    OLIKA              LIKA  ,8,None,None,None,27,None,None,None,,,,,,,,,,,,,,,,,,,,,0,22,22,2,1,2.57107974734,2020_sep_14_1433,99.9699239447,Control Task #6k,001,NENA_007,
MNTWLX,MNTWLX,,,,,    OLIKA              LIKA  ,8,None,None,None,33,None,None,None,,,,,,,,,,,,,,,,,,,,,0,23,23,8,1,2.96091951369,2020_sep_14_1433,99.9699239447,Control Task #6k,001,NENA_007,
