upper,lower,BlockSelect,feed_2,moveon,feed_1,judgment,correct,third,second,first,item_number,sixth,fourth,fifth,practice1.thisRepN,practice1.thisTrialN,practice1.thisN,practice1.thisIndex,trials.thisRepN,trials.thisTrialN,trials.thisN,trials.thisIndex,trials_2.thisRepN,trials_2.thisTrialN,trials_2.thisN,trials_2.thisIndex,practice2.thisRepN,practice2.thisTrialN,practice2.thisN,practice2.thisIndex,block1.thisRepN,block1.thisTrialN,block1.thisN,block1.thisIndex,blcok2.thisRepN,blcok2.thisTrialN,blcok2.thisN,blcok2.thisIndex,response,RT,date,frameRate,expName,session,participant,
DLF,ZLF,1,De två bokstavssträngar är lika.,Tryck på någon av knapparna för att fortsätta.,Den första bokstaven i strängen är olika.,     LIKA                 OLIKA,8,,,,,,,,0,0,0,0,0,0,0,0,,,,,,,,,,,,,,,,,8,2.13071375124,2020_nov_12_1101,99.9167107302,Control Task #6k,001,NENA_020,
DLF,ZLF,1,De två bokstavssträngar är lika.,Tryck på någon av knapparna för att fortsätta.,Den första bokstaven i strängen är olika.,     LIKA                 OLIKA,8,,,,,,,,0,0,0,0,,,,,,,,,,,,,,,,,,,,,,,2020_nov_12_1101,99.9167107302,Control Task #6k,001,NENA_020,
FLD,FLD,2,De två bokstavssträngar är lika.,Tryck på någon av knapparna för att fortsätta.,Den första bokstaven i strängen är olika.,     LIKA                 OLIKA,4,,,,,,,,0,1,1,1,,,,,0,0,0,0,,,,,,,,,,,,,1,1.01045816493,2020_nov_12_1101,99.9167107302,Control Task #6k,001,NENA_020,
FLD,FLD,2,De två bokstavssträngar är lika.,Tryck på någon av knapparna för att fortsätta.,Den första bokstaven i strängen är olika.,     LIKA                 OLIKA,4,,,,,,,,0,1,1,1,,,,,,,,,,,,,,,,,,,,,,,2020_nov_12_1101,99.9167107302,Control Task #6k,001,NENA_020,
WWT,WWT,1,,Tryck på någon av knapparna för att fortsätta.,,     LIKA                 OLIKA,4,None,None,None,,,,,,,,,,,,,,,,,0,0,0,1,,,,,,,,,1,1.25062839757,2020_nov_12_1101,99.9167107302,Control Task #6k,001,NENA_020,
FDW,FDW,1,,Tryck på någon av knapparna för att fortsätta.,,     LIKA                 OLIKA,4,None,None,None,,,,,,,,,,,,,,,,,0,1,1,2,,,,,,,,,1,0.810759077325,2020_nov_12_1101,99.9167107302,Control Task #6k,001,NENA_020,
RNL,RPL,1,,Tryck på någon av knapparna för att fortsätta.,,     LIKA                 OLIKA,8,None,P,None,,,,,,,,,,,,,,,,,0,2,2,4,,,,,,,,,1,0.800675850129,2020_nov_12_1101,99.9167107302,Control Task #6k,001,NENA_020,
GWG,GWX,1,,Tryck på någon av knapparna för att fortsätta.,,     LIKA                 OLIKA,8,X,None,None,,,,,,,,,,,,,,,,,0,3,3,5,,,,,,,,,1,1.11071119178,2020_nov_12_1101,99.9167107302,Control Task #6k,001,NENA_020,
JKY,JKY,1,,Tryck på någon av knapparna för att fortsätta.,,     LIKA                 OLIKA,4,None,None,None,,,,,,,,,,,,,,,,,0,4,4,0,,,,,,,,,1,0.890489635329,2020_nov_12_1101,99.9167107302,Control Task #6k,001,NENA_020,
JPB,SPB,1,,Tryck på någon av knapparna för att fortsätta.,,     LIKA                 OLIKA,8,None,None,S,,,,,,,,,,,,,,,,,0,5,5,3,,,,,,,,,1,0.870659951359,2020_nov_12_1101,99.9167107302,Control Task #6k,001,NENA_020,
HVD,HVD,,,Pulse el botón para continuar.,,     LIKA                 OLIKA,4,None,None,None,8,None,None,None,,,,,,,,,,,,,,,,,0,0,0,7,,,,,1,1.07072467543,2020_nov_12_1101,99.9167107302,Control Task #6k,001,NENA_020,
FRQ,MRQ,,,Pulse el botón para continuar.,,     LIKA                 OLIKA,8,None,None,M,15,None,None,None,,,,,,,,,,,,,,,,,0,1,1,14,,,,,1,0.700735859411,2020_nov_12_1101,99.9167107302,Control Task #6k,001,NENA_020,
NLX,NLX,,,Pulse el botón para continuar.,,     LIKA                 OLIKA,4,None,None,None,9,None,None,None,,,,,,,,,,,,,,,,,0,2,2,8,,,,,1,0.750340218312,2020_nov_12_1101,99.9167107302,Control Task #6k,001,NENA_020,
VXL,VXD,,,Pulse el botón para continuar.,,     LIKA                 OLIKA,8,D,None,None,24,None,None,None,,,,,,,,,,,,,,,,,0,3,3,23,,,,,1,0.550800535369,2020_nov_12_1101,99.9167107302,Control Task #6k,001,NENA_020,
RBN,RBW,,,Pulse el botón para continuar.,,     LIKA                 OLIKA,8,W,None,None,21,None,None,None,,,,,,,,,,,,,,,,,0,4,4,20,,,,,1,0.740721734297,2020_nov_12_1101,99.9167107302,Control Task #6k,001,NENA_020,
XTK,XTK,,,Pulse el botón para continuar.,,     LIKA                 OLIKA,4,None,None,None,6,None,None,None,,,,,,,,,,,,,,,,,0,5,5,5,,,,,1,1.25050459435,2020_nov_12_1101,99.9167107302,Control Task #6k,001,NENA_020,
KTS,KTS,,,Pulse el botón para continuar.,,     LIKA                 OLIKA,4,None,None,None,11,None,None,None,,,,,,,,,,,,,,,,,0,6,6,10,,,,,1,0.760269493314,2020_nov_12_1101,99.9167107302,Control Task #6k,001,NENA_020,
ZKJ,ZKV,,,Pulse el botón para continuar.,,     LIKA                 OLIKA,8,V,None,None,22,None,None,None,,,,,,,,,,,,,,,,,0,7,7,21,,,,,1,0.600663405661,2020_nov_12_1101,99.9167107302,Control Task #6k,001,NENA_020,
TLJ,TXJ,,,Pulse el botón para continuar.,,     LIKA                 OLIKA,8,None,X,None,17,None,None,None,,,,,,,,,,,,,,,,,0,8,8,16,,,,,1,0.550560626534,2020_nov_12_1101,99.9167107302,Control Task #6k,001,NENA_020,
BLG,BSG,,,Pulse el botón para continuar.,,     LIKA                 OLIKA,8,None,S,None,19,None,None,None,,,,,,,,,,,,,,,,,0,9,9,18,,,,,1,1.01074008989,2020_nov_12_1101,99.9167107302,Control Task #6k,001,NENA_020,
CBN,CMN,,,Pulse el botón para continuar.,,     LIKA                 OLIKA,8,None,M,None,20,None,None,None,,,,,,,,,,,,,,,,,0,10,10,19,,,,,1,0.59077486384,2020_nov_12_1101,99.9167107302,Control Task #6k,001,NENA_020,
BGQ,BWQ,,,Pulse el botón para continuar.,,     LIKA                 OLIKA,8,None,W,None,18,None,None,None,,,,,,,,,,,,,,,,,0,11,11,17,,,,,1,0.519913876578,2020_nov_12_1101,99.9167107302,Control Task #6k,001,NENA_020,
WJP,WJZ,,,Pulse el botón para continuar.,,     LIKA                 OLIKA,8,Z,None,None,23,None,None,None,,,,,,,,,,,,,,,,,0,12,12,22,,,,,1,0.620177166902,2020_nov_12_1101,99.9167107302,Control Task #6k,001,NENA_020,
WSV,WSV,,,Pulse el botón para continuar.,,     LIKA                 OLIKA,4,None,None,None,7,None,None,None,,,,,,,,,,,,,,,,,0,13,13,6,,,,,1,0.540563355979,2020_nov_12_1101,99.9167107302,Control Task #6k,001,NENA_020,
NRK,NRK,,,Pulse el botón para continuar.,,     LIKA                 OLIKA,4,None,None,None,10,None,None,None,,,,,,,,,,,,,,,,,0,14,14,9,,,,,1,0.860745430105,2020_nov_12_1101,99.9167107302,Control Task #6k,001,NENA_020,
QNB,QNB,,,Pulse el botón para continuar.,,     LIKA                 OLIKA,4,None,None,None,1,None,None,None,,,,,,,,,,,,,,,,,0,15,15,0,,,,,1,0.780617162269,2020_nov_12_1101,99.9167107302,Control Task #6k,001,NENA_020,
RBT,RBT,,,Pulse el botón para continuar.,,     LIKA                 OLIKA,4,None,None,None,2,None,None,None,,,,,,,,,,,,,,,,,0,16,16,1,,,,,1,0.499844283771,2020_nov_12_1101,99.9167107302,Control Task #6k,001,NENA_020,
GVN,RVN,,,Pulse el botón para continuar.,,     LIKA                 OLIKA,8,None,None,R,14,None,None,None,,,,,,,,,,,,,,,,,0,17,17,13,,,,,1,0.550692768833,2020_nov_12_1101,99.9167107302,Control Task #6k,001,NENA_020,
VSG,VSG,,,Pulse el botón para continuar.,,     LIKA                 OLIKA,4,None,None,None,5,None,None,None,,,,,,,,,,,,,,,,,0,18,18,4,,,,,1,0.570515396663,2020_nov_12_1101,99.9167107302,Control Task #6k,001,NENA_020,
GZK,GZK,,,Pulse el botón para continuar.,,     LIKA                 OLIKA,4,None,None,None,3,None,None,None,,,,,,,,,,,,,,,,,0,19,19,2,,,,,1,0.529481363928,2020_nov_12_1101,99.9167107302,Control Task #6k,001,NENA_020,
ZLW,ZLW,,,Pulse el botón para continuar.,,     LIKA                 OLIKA,4,None,None,None,4,None,None,None,,,,,,,,,,,,,,,,,0,20,20,3,,,,,1,0.750260355609,2020_nov_12_1101,99.9167107302,Control Task #6k,001,NENA_020,
SVB,PVB,,,Pulse el botón para continuar.,,     LIKA                 OLIKA,8,None,None,P,13,None,None,None,,,,,,,,,,,,,,,,,0,21,21,12,,,,,1,0.550627980618,2020_nov_12_1101,99.9167107302,Control Task #6k,001,NENA_020,
KTM,XTM,,,Pulse el botón para continuar.,,     LIKA                 OLIKA,8,None,None,X,16,None,None,None,,,,,,,,,,,,,,,,,0,22,22,15,,,,,1,0.550787706019,2020_nov_12_1101,99.9167107302,Control Task #6k,001,NENA_020,
FHP,FHP,,,Pulse el botón para continuar.,,     LIKA                 OLIKA,4,None,None,None,12,None,None,None,,,,,,,,,,,,,,,,,0,23,23,11,,,,,0,0.499824077546,2020_nov_12_1101,99.9167107302,Control Task #6k,001,NENA_020,
HVNPDS,HVNPMS,,,Pulse el botón para continuar.,,     LIKA                 OLIKA,8,None,None,None,46,None,None,M,,,,,,,,,,,,,,,,,,,,,0,0,0,21,1,1.30080494546,2020_nov_12_1101,99.9167107302,Control Task #6k,001,NENA_020,
QVPSKN,RVPSKN,,,Pulse el botón para continuar.,,     LIKA                 OLIKA,8,None,None,R,37,None,None,None,,,,,,,,,,,,,,,,,,,,,0,1,1,12,1,1.22067988496,2020_nov_12_1101,99.9167107302,Control Task #6k,001,NENA_020,
RDNCQM,RDNCQB,,,Pulse el botón para continuar.,,     LIKA                 OLIKA,8,None,None,None,48,B,None,None,,,,,,,,,,,,,,,,,,,,,0,2,2,23,1,1.02082844883,2020_nov_12_1101,99.9167107302,Control Task #6k,001,NENA_020,
ZKSWVJ,ZKSWVJ,,,Pulse el botón para continuar.,,     LIKA                 OLIKA,4,None,None,None,27,None,None,None,,,,,,,,,,,,,,,,,,,,,0,3,3,2,1,0.730412710549,2020_nov_12_1101,99.9167107302,Control Task #6k,001,NENA_020,
JRTLNM,JRTLNM,,,Pulse el botón para continuar.,,     LIKA                 OLIKA,4,None,None,None,30,None,None,None,,,,,,,,,,,,,,,,,,,,,0,4,4,5,1,0.690788944052,2020_nov_12_1101,99.9167107302,Control Task #6k,001,NENA_020,
HNDKLM,HNDKLM,,,Pulse el botón para continuar.,,     LIKA                 OLIKA,4,None,None,None,28,None,None,None,,,,,,,,,,,,,,,,,,,,,0,5,5,3,1,0.570658123175,2020_nov_12_1101,99.9167107302,Control Task #6k,001,NENA_020,
MNTWLX,MNTWLX,,,Pulse el botón para continuar.,,     LIKA                 OLIKA,4,None,None,None,33,None,None,None,,,,,,,,,,,,,,,,,,,,,0,6,6,8,1,0.650642381563,2020_nov_12_1101,99.9167107302,Control Task #6k,001,NENA_020,
MLVDZG,MLVDZG,,,Pulse el botón para continuar.,,     LIKA                 OLIKA,4,None,None,None,26,None,None,None,,,,,,,,,,,,,,,,,,,,,0,7,7,1,1,0.660475436445,2020_nov_12_1101,99.9167107302,Control Task #6k,001,NENA_020,
CJDHXN,CJDBXN,,,Pulse el botón para continuar.,,     LIKA                 OLIKA,8,None,None,None,43,None,B,None,,,,,,,,,,,,,,,,,,,,,0,8,8,18,0,0.509822951772,2020_nov_12_1101,99.9167107302,Control Task #6k,001,NENA_020,
PBRJNQ,PBRJNQ,,,Pulse el botón para continuar.,,     LIKA                 OLIKA,4,None,None,None,25,None,None,None,,,,,,,,,,,,,,,,,,,,,0,9,9,0,1,0.539889815131,2020_nov_12_1101,99.9167107302,Control Task #6k,001,NENA_020,
NMHJKR,WMHJKR,,,Pulse el botón para continuar.,,     LIKA                 OLIKA,8,None,None,W,38,None,None,None,,,,,,,,,,,,,,,,,,,,,0,10,10,13,0,0.4999206184,2020_nov_12_1101,99.9167107302,Control Task #6k,001,NENA_020,
DRLGHS,DRFGHS,,,Pulse el botón para continuar.,,     LIKA                 OLIKA,8,F,None,None,42,None,None,None,,,,,,,,,,,,,,,,,,,,,0,11,11,17,1,1.41079288266,2020_nov_12_1101,99.9167107302,Control Task #6k,001,NENA_020,
KWDCXG,KWDCXG,,,Pulse el botón para continuar.,,     LIKA                 OLIKA,4,None,None,None,34,None,None,None,,,,,,,,,,,,,,,,,,,,,0,12,12,9,1,1.07085328965,2020_nov_12_1101,99.9167107302,Control Task #6k,001,NENA_020,
GJHSCJ,GJVSCJ,,,Pulse el botón para continuar.,,     LIKA                 OLIKA,8,V,None,None,41,None,None,None,,,,,,,,,,,,,,,,,,,,,0,13,13,16,1,0.840756662201,2020_nov_12_1101,99.9167107302,Control Task #6k,001,NENA_020,
QGNXBF,QGNXBF,,,Pulse el botón para continuar.,,     LIKA                 OLIKA,4,None,None,None,29,None,None,None,,,,,,,,,,,,,,,,,,,,,0,14,14,4,1,1.12069018051,2020_nov_12_1101,99.9167107302,Control Task #6k,001,NENA_020,
XDPVFN,XDPVFN,,,Pulse el botón para continuar.,,     LIKA                 OLIKA,4,None,None,None,32,None,None,None,,,,,,,,,,,,,,,,,,,,,0,15,15,7,1,1.01074907043,2020_nov_12_1101,99.9167107302,Control Task #6k,001,NENA_020,
DVBWHP,DCBWHP,,,Pulse el botón para continuar.,,     LIKA                 OLIKA,8,None,C,None,40,None,None,None,,,,,,,,,,,,,,,,,,,,,0,16,16,15,0,1.06072548047,2020_nov_12_1101,99.9167107302,Control Task #6k,001,NENA_020,
BKDXWF,BKDXWF,,,Pulse el botón para continuar.,,     LIKA                 OLIKA,4,None,None,None,35,None,None,None,,,,,,,,,,,,,,,,,,,,,0,17,17,10,1,1.15065056027,2020_nov_12_1101,99.9167107302,Control Task #6k,001,NENA_020,
QJZTBL,QJZCBL,,,Pulse el botón para continuar.,,     LIKA                 OLIKA,8,None,None,None,44,None,C,None,,,,,,,,,,,,,,,,,,,,,0,18,18,19,0,0.82072523671,2020_nov_12_1101,99.9167107302,Control Task #6k,001,NENA_020,
NKZRGP,NKZRGP,,,Pulse el botón para continuar.,,     LIKA                 OLIKA,4,None,None,None,36,None,None,None,,,,,,,,,,,,,,,,,,,,,0,19,19,11,1,1.43076529315,2020_nov_12_1101,99.9167107302,Control Task #6k,001,NENA_020,
PXVFWM,PXVFZM,,,Pulse el botón para continuar.,,     LIKA                 OLIKA,8,None,None,None,45,None,None,Z,,,,,,,,,,,,,,,,,,,,,0,20,20,20,1,0.870661555025,2020_nov_12_1101,99.9167107302,Control Task #6k,001,NENA_020,
DWQRVK,DPQRVK,,,Pulse el botón para continuar.,,     LIKA                 OLIKA,8,None,P,None,39,None,None,None,,,,,,,,,,,,,,,,,,,,,0,21,21,14,1,1.58080196905,2020_nov_12_1101,99.9167107302,Control Task #6k,001,NENA_020,
PZBQJM,PZBQJH,,,Pulse el botón para continuar.,,     LIKA                 OLIKA,8,None,None,None,47,H,None,None,,,,,,,,,,,,,,,,,,,,,0,22,22,22,1,1.51090735253,2020_nov_12_1101,99.9167107302,Control Task #6k,001,NENA_020,
JZVSPX,JZVSPX,,,Pulse el botón para continuar.,,     LIKA                 OLIKA,4,None,None,None,31,None,None,None,,,,,,,,,,,,,,,,,,,,,0,23,23,6,1,1.23076150849,2020_nov_12_1101,99.9167107302,Control Task #6k,001,NENA_020,
